#EXPORTTYPE:                 	DATA SINGLE                              
#FILE:                       	SK_Clear_resin_entalp10kpm_20-150.ngb-sdg
#FORMAT:                     	NETZSCH5                                 
#FTYPE:                      	ASCII                                    
#IDENTITY:                   	SK_clear_resin                           
#DECIMAL:                    	POINT                                    
#SEPARATOR:                  	TAB                                      
#MTYPE:                      	DSC                                      
#INSTRUMENT:                 	NETZSCH DSC 214                          
#PROJECT:                    	?ø?†??-Ø                               
#DATE/TIME:                  	13.09.2019 18:18:30 (UTC+3)              
#CORR. FILE:                 	                                         
#TEMPCAL:                    	applied                                  
#SENSITIVITY:                	applied                                  
#LABORATORY:                 	CISIS                                    
#OPERATOR:                   	Nasonov                                  
#REMARK:                     	                                         
#SAMPLE:                     	1070-G290S -0-Ù.1-3-17X3                 
#SAMPLE MASS /mg:            	7.81                                     
#MATERIAL:                   	                                         
#REFERENCE:                  	                                         
#REFERENCE MASS /mg:         	7.76                                     
#TYPE OF CRUCIBLE:           	Concavus Pan Al, pierced lid             
#SAMPLE CRUCIBLE MASS /mg:   	0                                        
#REFERENCE CRUCIBLE MASS /mg:	0                                        
#M.RANGE /ßV:                	5000                                     
#TAU-R:                      	---                                      
#CORR. CODE:                 	009                                      
#EXO:                        	+1                                       
#RANGE:                      	20ËC/10.0(K/min)/150ËC                   
#SEGMENT:                    	S1/1                                     
#SEG. 1:                     	20ËC/10.0(K/min)/150ËC                   

##Temp./ËC	Time/min	DSC/(mW/mg)	Sensit./(uV/mW)
 20.04200	 0.00000	 2.977584e-002	3.36736
 20.04014	 0.01000	 2.965883e-002	3.36736
 20.04054	 0.02000	 2.948481e-002	3.36736
 20.04737	 0.03000	 2.934014e-002	3.36736
 20.06740	 0.04000	 2.954732e-002	3.36738
 20.10158	 0.05000	 3.321125e-002	3.36742
 20.15027	 0.06000	 3.920236e-002	3.36747
 20.21267	 0.07000	 4.708485e-002	3.36754
 20.28794	 0.08000	 5.445116e-002	3.36761
 20.37493	 0.09000	 6.042940e-002	3.36770
 20.47241	 0.10000	 6.351191e-002	3.36780
 20.54839	 0.11000	 6.465329e-002	3.36788
 20.63192	 0.12000	 6.292694e-002	3.36797
 20.72293	 0.13000	 5.876926e-002	3.36806
 20.82152	 0.14000	 5.220800e-002	3.36816
 20.92743	 0.15000	 4.344716e-002	3.36827
 21.04020	 0.16000	 3.202363e-002	3.36838
 21.15903	 0.17000	 1.857820e-002	3.36851
 21.28336	 0.18000	 3.686191e-003	3.36863
 21.41259	 0.19000	-1.320208e-002	3.36876
 21.54605	 0.20000	-3.142066e-002	3.36889
 21.68310	 0.21000	-5.065201e-002	3.36903
 21.82318	 0.22000	-7.098074e-002	3.36917
 21.96559	 0.23000	-9.182849e-002	3.36931
 22.10980	 0.24000	      -0.11301	3.36945
 22.25526	 0.25000	      -0.13472	3.36960
 22.40136	 0.26000	      -0.15592	3.36974
 22.54764	 0.27000	      -0.17684	3.36988
 22.69364	 0.28000	      -0.19706	3.37003
 22.83887	 0.29000	      -0.21678	3.37017
 22.98302	 0.30000	      -0.23564	3.37030
 23.12559	 0.31000	      -0.25352	3.37044
 23.26643	 0.32000	      -0.27045	3.37058
 23.40515	 0.33000	      -0.28616	3.37071
 23.54157	 0.34000	      -0.30089	3.37084
 23.67556	 0.35000	      -0.31422	3.37096
 23.80680	 0.36000	      -0.32634	3.37109
 23.93533	 0.37000	      -0.33713	3.37121
 24.06108	 0.38000	      -0.34644	3.37133
 24.18393	 0.39000	      -0.35428	3.37144
 24.30385	 0.40000	      -0.36109	3.37155
 24.42090	 0.41000	      -0.36633	3.37166
 24.53511	 0.42000	      -0.37045	3.37176
 24.64664	 0.43000	      -0.37361	3.37187
 24.75543	 0.44000	      -0.37550	3.37197
 24.86162	 0.45000	      -0.37635	3.37206
 24.96544	 0.46000	      -0.37613	3.37216
 25.06698	 0.47000	      -0.37529	3.37225
 25.16638	 0.48000	      -0.37339	3.37234
 25.26377	 0.49000	      -0.37080	3.37243
 25.35933	 0.50000	      -0.36757	3.37251
 25.45326	 0.51000	      -0.36377	3.37260
 25.54562	 0.52000	      -0.35950	3.37268
 25.63666	 0.53000	      -0.35474	3.37276
 25.72661	 0.54000	      -0.34960	3.37284
 25.81551	 0.55000	      -0.34415	3.37292
 25.90357	 0.56000	      -0.33869	3.37300
 25.99100	 0.57000	      -0.33332	3.37307
 26.07784	 0.58000	      -0.32751	3.37315
 26.16434	 0.59000	      -0.32192	3.37323
 26.25066	 0.60000	      -0.31611	3.37330
 26.33689	 0.61000	      -0.31049	3.37338
 26.42315	 0.62000	      -0.30488	3.37345
 26.50946	 0.63000	      -0.29973	3.37353
 26.59592	 0.64000	      -0.29510	3.37360
 26.68259	 0.65000	      -0.29032	3.37367
 26.76954	 0.66000	      -0.28569	3.37375
 26.85693	 0.67000	      -0.28152	3.37382
 26.94479	 0.68000	      -0.27747	3.37390
 27.03328	 0.69000	      -0.27403	3.37397
 27.12231	 0.70000	      -0.27056	3.37405
 27.21192	 0.71000	      -0.26768	3.37413
 27.30230	 0.72000	      -0.26546	3.37420
 27.39326	 0.73000	      -0.26329	3.37428
 27.48489	 0.74000	      -0.26136	3.37436
 27.57716	 0.75000	      -0.25957	3.37443
 27.67008	 0.76000	      -0.25874	3.37451
 27.76369	 0.77000	      -0.25808	3.37459
 27.85797	 0.78000	      -0.25736	3.37467
 27.95293	 0.79000	      -0.25661	3.37475
 28.04852	 0.80000	      -0.25594	3.37482
 28.14459	 0.81000	      -0.25599	3.37490
 28.24116	 0.82000	      -0.25643	3.37498
 28.33828	 0.83000	      -0.25720	3.37506
 28.43593	 0.84000	      -0.25801	3.37514
 28.53418	 0.85000	      -0.25876	3.37522
 28.63280	 0.86000	      -0.25971	3.37530
 28.73185	 0.87000	      -0.26083	3.37538
 28.83125	 0.88000	      -0.26207	3.37546
 28.93089	 0.89000	      -0.26331	3.37554
 29.03082	 0.90000	      -0.26459	3.37562
 29.13102	 0.91000	      -0.26613	3.37570
 29.23133	 0.92000	      -0.26749	3.37578
 29.33187	 0.93000	      -0.26876	3.37586
 29.43252	 0.94000	      -0.27030	3.37594
 29.53328	 0.95000	      -0.27178	3.37602
 29.63421	 0.96000	      -0.27314	3.37610
 29.73521	 0.97000	      -0.27453	3.37617
 29.83616	 0.98000	      -0.27600	3.37625
 29.93705	 0.99000	      -0.27736	3.37633
 30.03792	 1.00000	      -0.27870	3.37641
 30.13890	 1.01000	      -0.27962	3.37649
 30.23979	 1.02000	      -0.28059	3.37656
 30.34067	 1.03000	      -0.28168	3.37664
 30.44151	 1.04000	      -0.28323	3.37672
 30.54230	 1.05000	      -0.28421	3.37679
 30.64293	 1.06000	      -0.28507	3.37687
 30.74352	 1.07000	      -0.28589	3.37694
 30.84407	 1.08000	      -0.28667	3.37702
 30.94448	 1.09000	      -0.28698	3.37710
 31.04480	 1.10000	      -0.28751	3.37717
 31.14507	 1.11000	      -0.28825	3.37724
 31.24526	 1.12000	      -0.28888	3.37732
 31.34533	 1.13000	      -0.28921	3.37739
 31.44531	 1.14000	      -0.28981	3.37746
 31.54520	 1.15000	      -0.28997	3.37754
 31.64495	 1.16000	      -0.29016	3.37761
 31.74464	 1.17000	      -0.29052	3.37768
 31.84428	 1.18000	      -0.29083	3.37775
 31.94392	 1.19000	      -0.29113	3.37783
 32.04348	 1.20000	      -0.29106	3.37790
 32.14295	 1.21000	      -0.29108	3.37797
 32.24239	 1.22000	      -0.29107	3.37804
 32.34175	 1.23000	      -0.29117	3.37811
 32.44105	 1.24000	      -0.29127	3.37818
 32.54033	 1.25000	      -0.29118	3.37825
 32.63956	 1.26000	      -0.29119	3.37832
 32.73887	 1.27000	      -0.29121	3.37839
 32.83816	 1.28000	      -0.29117	3.37846
 32.93748	 1.29000	      -0.29113	3.37853
 33.03672	 1.30000	      -0.29117	3.37859
 33.13597	 1.31000	      -0.29114	3.37866
 33.23516	 1.32000	      -0.29096	3.37873
 33.33441	 1.33000	      -0.29098	3.37880
 33.43367	 1.34000	      -0.29101	3.37887
 33.53297	 1.35000	      -0.29106	3.37893
 33.63228	 1.36000	      -0.29097	3.37900
 33.73164	 1.37000	      -0.29086	3.37907
 33.83097	 1.38000	      -0.29079	3.37913
 33.93033	 1.39000	      -0.29085	3.37920
 34.02974	 1.40000	      -0.29098	3.37926
 34.12918	 1.41000	      -0.29112	3.37933
 34.22862	 1.42000	      -0.29140	3.37940
 34.32816	 1.43000	      -0.29140	3.37946
 34.42769	 1.44000	      -0.29136	3.37953
 34.52726	 1.45000	      -0.29130	3.37959
 34.62687	 1.46000	      -0.29135	3.37965
 34.72648	 1.47000	      -0.29123	3.37972
 34.82610	 1.48000	      -0.29122	3.37978
 34.92569	 1.49000	      -0.29142	3.37985
 35.02529	 1.50000	      -0.29154	3.37991
 35.12492	 1.51000	      -0.29155	3.37997
 35.22452	 1.52000	      -0.29178	3.38004
 35.32420	 1.53000	      -0.29216	3.38010
 35.42395	 1.54000	      -0.29225	3.38016
 35.52374	 1.55000	      -0.29234	3.38022
 35.62356	 1.56000	      -0.29266	3.38028
 35.72343	 1.57000	      -0.29298	3.38035
 35.82333	 1.58000	      -0.29298	3.38041
 35.92316	 1.59000	      -0.29327	3.38047
 36.02298	 1.60000	      -0.29360	3.38053
 36.12284	 1.61000	      -0.29372	3.38059
 36.22272	 1.62000	      -0.29378	3.38065
 36.32267	 1.63000	      -0.29389	3.38071
 36.42266	 1.64000	      -0.29433	3.38077
 36.52261	 1.65000	      -0.29461	3.38083
 36.62254	 1.66000	      -0.29490	3.38089
 36.72246	 1.67000	      -0.29519	3.38095
 36.82241	 1.68000	      -0.29528	3.38101
 36.92238	 1.69000	      -0.29531	3.38107
 37.02236	 1.70000	      -0.29563	3.38112
 37.12246	 1.71000	      -0.29604	3.38118
 37.22254	 1.72000	      -0.29625	3.38124
 37.32261	 1.73000	      -0.29649	3.38130
 37.42262	 1.74000	      -0.29691	3.38135
 37.52267	 1.75000	      -0.29689	3.38141
 37.62267	 1.76000	      -0.29733	3.38147
 37.72269	 1.77000	      -0.29754	3.38152
 37.82270	 1.78000	      -0.29796	3.38158
 37.92274	 1.79000	      -0.29843	3.38164
 38.02289	 1.80000	      -0.29873	3.38169
 38.12290	 1.81000	      -0.29911	3.38175
 38.22295	 1.82000	      -0.29941	3.38180
 38.32298	 1.83000	      -0.29947	3.38186
 38.42297	 1.84000	      -0.29976	3.38191
 38.52297	 1.85000	      -0.29997	3.38197
 38.62297	 1.86000	      -0.30029	3.38202
 38.72303	 1.87000	      -0.30065	3.38207
 38.82305	 1.88000	      -0.30094	3.38213
 38.92313	 1.89000	      -0.30149	3.38218
 39.02316	 1.90000	      -0.30168	3.38223
 39.12318	 1.91000	      -0.30177	3.38229
 39.22325	 1.92000	      -0.30194	3.38234
 39.32331	 1.93000	      -0.30208	3.38239
 39.42343	 1.94000	      -0.30229	3.38244
 39.52352	 1.95000	      -0.30249	3.38249
 39.62362	 1.96000	      -0.30263	3.38255
 39.72374	 1.97000	      -0.30275	3.38260
 39.82374	 1.98000	      -0.30289	3.38265
 39.92375	 1.99000	      -0.30309	3.38270
 40.02371	 2.00000	      -0.30321	3.38275
 40.12367	 2.01000	      -0.30329	3.38280
 40.22375	 2.02000	      -0.30340	3.38285
 40.32377	 2.03000	      -0.30360	3.38290
 40.42379	 2.04000	      -0.30374	3.38295
 40.52384	 2.05000	      -0.30394	3.38300
 40.62389	 2.06000	      -0.30417	3.38304
 40.72390	 2.07000	      -0.30439	3.38309
 40.82392	 2.08000	      -0.30456	3.38314
 40.92382	 2.09000	      -0.30456	3.38319
 41.02374	 2.10000	      -0.30480	3.38324
 41.12369	 2.11000	      -0.30482	3.38328
 41.22366	 2.12000	      -0.30499	3.38333
 41.32356	 2.13000	      -0.30528	3.38338
 41.42346	 2.14000	      -0.30556	3.38342
 41.52336	 2.15000	      -0.30585	3.38347
 41.62336	 2.16000	      -0.30614	3.38352
 41.72336	 2.17000	      -0.30628	3.38356
 41.82331	 2.18000	      -0.30636	3.38361
 41.92336	 2.19000	      -0.30673	3.38365
 42.02343	 2.20000	      -0.30699	3.38370
 42.12351	 2.21000	      -0.30721	3.38374
 42.22352	 2.22000	      -0.30722	3.38379
 42.32357	 2.23000	      -0.30753	3.38383
 42.42367	 2.24000	      -0.30760	3.38388
 42.52375	 2.25000	      -0.30791	3.38392
 42.62384	 2.26000	      -0.30821	3.38396
 42.72385	 2.27000	      -0.30843	3.38401
 42.82389	 2.28000	      -0.30865	3.38405
 42.92397	 2.29000	      -0.30890	3.38409
 43.02403	 2.30000	      -0.30910	3.38413
 43.12413	 2.31000	      -0.30940	3.38418
 43.22416	 2.32000	      -0.30971	3.38422
 43.32421	 2.33000	      -0.31005	3.38426
 43.42418	 2.34000	      -0.31016	3.38430
 43.52410	 2.35000	      -0.31018	3.38434
 43.62389	 2.36000	      -0.31043	3.38438
 43.72375	 2.37000	      -0.31062	3.38442
 43.82361	 2.38000	      -0.31093	3.38446
 43.92346	 2.39000	      -0.31147	3.38450
 44.02331	 2.40000	      -0.31171	3.38454
 44.12323	 2.41000	      -0.31159	3.38458
 44.22308	 2.42000	      -0.31162	3.38462
 44.32293	 2.43000	      -0.31188	3.38466
 44.42270	 2.44000	      -0.31214	3.38470
 44.52257	 2.45000	      -0.31237	3.38474
 44.62241	 2.46000	      -0.31252	3.38477
 44.72230	 2.47000	      -0.31264	3.38481
 44.82225	 2.48000	      -0.31284	3.38485
 44.92221	 2.49000	      -0.31307	3.38489
 45.02220	 2.50000	      -0.31336	3.38492
 45.12220	 2.51000	      -0.31364	3.38496
 45.22218	 2.52000	      -0.31384	3.38500
 45.32223	 2.53000	      -0.31403	3.38503
 45.42228	 2.54000	      -0.31423	3.38507
 45.52243	 2.55000	      -0.31436	3.38510
 45.62264	 2.56000	      -0.31453	3.38514
 45.72285	 2.57000	      -0.31470	3.38518
 45.82308	 2.58000	      -0.31489	3.38521
 45.92328	 2.59000	      -0.31529	3.38525
 46.02344	 2.60000	      -0.31537	3.38528
 46.12367	 2.61000	      -0.31564	3.38531
 46.22385	 2.62000	      -0.31592	3.38535
 46.32407	 2.63000	      -0.31611	3.38538
 46.42421	 2.64000	      -0.31630	3.38541
 46.52438	 2.65000	      -0.31648	3.38545
 46.62454	 2.66000	      -0.31659	3.38548
 46.72472	 2.67000	      -0.31666	3.38551
 46.82479	 2.68000	      -0.31676	3.38555
 46.92492	 2.69000	      -0.31701	3.38558
 47.02507	 2.70000	      -0.31732	3.38561
 47.12516	 2.71000	      -0.31753	3.38564
 47.22533	 2.72000	      -0.31771	3.38567
 47.32543	 2.73000	      -0.31789	3.38570
 47.42561	 2.74000	      -0.31799	3.38573
 47.52575	 2.75000	      -0.31794	3.38577
 47.62587	 2.76000	      -0.31813	3.38580
 47.72595	 2.77000	      -0.31825	3.38583
 47.82602	 2.78000	      -0.31840	3.38586
 47.92602	 2.79000	      -0.31867	3.38588
 48.02602	 2.80000	      -0.31891	3.38591
 48.12592	 2.81000	      -0.31937	3.38594
 48.22587	 2.82000	      -0.31925	3.38597
 48.32584	 2.83000	      -0.31935	3.38600
 48.42579	 2.84000	      -0.31952	3.38603
 48.52580	 2.85000	      -0.31955	3.38606
 48.62577	 2.86000	      -0.31983	3.38608
 48.72572	 2.87000	      -0.32011	3.38611
 48.82577	 2.88000	      -0.32025	3.38614
 48.92582	 2.89000	      -0.32042	3.38616
 49.02579	 2.90000	      -0.32059	3.38619
 49.12582	 2.91000	      -0.32076	3.38622
 49.22577	 2.92000	      -0.32072	3.38624
 49.32572	 2.93000	      -0.32075	3.38627
 49.42566	 2.94000	      -0.32077	3.38630
 49.52577	 2.95000	      -0.32102	3.38632
 49.62602	 2.96000	      -0.32125	3.38635
 49.72629	 2.97000	      -0.32150	3.38637
 49.82634	 2.98000	      -0.32167	3.38639
 49.92628	 2.99000	      -0.32186	3.38642
 50.02623	 3.00000	      -0.32194	3.38644
 50.12621	 3.01000	      -0.32190	3.38647
 50.22616	 3.02000	      -0.32219	3.38649
 50.32608	 3.03000	      -0.32250	3.38651
 50.42607	 3.04000	      -0.32252	3.38654
 50.52603	 3.05000	      -0.32260	3.38656
 50.62600	 3.06000	      -0.32268	3.38658
 50.72598	 3.07000	      -0.32300	3.38660
 50.82592	 3.08000	      -0.32317	3.38663
 50.92587	 3.09000	      -0.32336	3.38665
 51.02575	 3.10000	      -0.32357	3.38667
 51.12572	 3.11000	      -0.32381	3.38669
 51.22569	 3.12000	      -0.32384	3.38671
 51.32564	 3.13000	      -0.32373	3.38673
 51.42556	 3.14000	      -0.32373	3.38675
 51.52548	 3.15000	      -0.32386	3.38677
 51.62516	 3.16000	      -0.32427	3.38679
 51.72484	 3.17000	      -0.32427	3.38681
 51.82456	 3.18000	      -0.32442	3.38683
 51.92461	 3.19000	      -0.32451	3.38685
 52.02462	 3.20000	      -0.32474	3.38687
 52.12467	 3.21000	      -0.32483	3.38689
 52.22480	 3.22000	      -0.32492	3.38690
 52.32487	 3.23000	      -0.32505	3.38692
 52.42497	 3.24000	      -0.32520	3.38694
 52.52503	 3.25000	      -0.32540	3.38696
 52.62513	 3.26000	      -0.32558	3.38697
 52.72520	 3.27000	      -0.32582	3.38699
 52.82530	 3.28000	      -0.32591	3.38701
 52.92534	 3.29000	      -0.32609	3.38703
 53.02539	 3.30000	      -0.32638	3.38704
 53.12539	 3.31000	      -0.32652	3.38706
 53.22536	 3.32000	      -0.32642	3.38707
 53.32539	 3.33000	      -0.32636	3.38709
 53.42546	 3.34000	      -0.32638	3.38710
 53.52548	 3.35000	      -0.32644	3.38712
 53.62543	 3.36000	      -0.32657	3.38713
 53.72546	 3.37000	      -0.32680	3.38715
 53.82556	 3.38000	      -0.32668	3.38716
 53.92564	 3.39000	      -0.32699	3.38718
 54.02575	 3.40000	      -0.32716	3.38719
 54.12590	 3.41000	      -0.32719	3.38720
 54.22598	 3.42000	      -0.32728	3.38722
 54.32613	 3.43000	      -0.32733	3.38723
 54.42623	 3.44000	      -0.32737	3.38724
 54.52630	 3.45000	      -0.32722	3.38725
 54.62636	 3.46000	      -0.32728	3.38727
 54.72636	 3.47000	      -0.32745	3.38728
 54.82633	 3.48000	      -0.32751	3.38729
 54.92638	 3.49000	      -0.32769	3.38730
 55.02644	 3.50000	      -0.32780	3.38731
 55.12644	 3.51000	      -0.32790	3.38732
 55.22648	 3.52000	      -0.32802	3.38733
 55.32652	 3.53000	      -0.32807	3.38734
 55.42652	 3.54000	      -0.32819	3.38735
 55.52657	 3.55000	      -0.32826	3.38736
 55.62661	 3.56000	      -0.32833	3.38737
 55.72657	 3.57000	      -0.32820	3.38738
 55.82652	 3.58000	      -0.32841	3.38739
 55.92657	 3.59000	      -0.32831	3.38740
 56.02657	 3.60000	      -0.32839	3.38741
 56.12661	 3.61000	      -0.32839	3.38742
 56.22664	 3.62000	      -0.32842	3.38742
 56.32669	 3.63000	      -0.32848	3.38743
 56.42669	 3.64000	      -0.32854	3.38744
 56.52664	 3.65000	      -0.32863	3.38745
 56.62666	 3.66000	      -0.32854	3.38745
 56.72667	 3.67000	      -0.32863	3.38746
 56.82669	 3.68000	      -0.32872	3.38747
 56.92667	 3.69000	      -0.32875	3.38747
 57.02666	 3.70000	      -0.32871	3.38748
 57.12672	 3.71000	      -0.32870	3.38748
 57.22679	 3.72000	      -0.32892	3.38749
 57.32684	 3.73000	      -0.32908	3.38750
 57.42687	 3.74000	      -0.32918	3.38750
 57.52690	 3.75000	      -0.32923	3.38750
 57.62695	 3.76000	      -0.32905	3.38751
 57.72700	 3.77000	      -0.32909	3.38751
 57.82705	 3.78000	      -0.32914	3.38752
 57.92702	 3.79000	      -0.32916	3.38752
 58.02698	 3.80000	      -0.32909	3.38752
 58.12697	 3.81000	      -0.32904	3.38753
 58.22695	 3.82000	      -0.32900	3.38753
 58.32695	 3.83000	      -0.32915	3.38753
 58.42690	 3.84000	      -0.32911	3.38754
 58.52689	 3.85000	      -0.32918	3.38754
 58.62685	 3.86000	      -0.32905	3.38754
 58.72685	 3.87000	      -0.32914	3.38754
 58.82689	 3.88000	      -0.32916	3.38754
 58.92695	 3.89000	      -0.32917	3.38754
 59.02690	 3.90000	      -0.32919	3.38754
 59.12687	 3.91000	      -0.32916	3.38755
 59.22697	 3.92000	      -0.32921	3.38755
 59.32695	 3.93000	      -0.32933	3.38755
 59.42697	 3.94000	      -0.32938	3.38755
 59.52707	 3.95000	      -0.32932	3.38754
 59.62710	 3.96000	      -0.32938	3.38754
 59.72720	 3.97000	      -0.32952	3.38754
 59.82729	 3.98000	      -0.32949	3.38754
 59.92736	 3.99000	      -0.32951	3.38754
 60.02743	 4.00000	      -0.32953	3.38754
 60.12744	 4.01000	      -0.32974	3.38754
 60.22749	 4.02000	      -0.32961	3.38754
 60.32751	 4.03000	      -0.32962	3.38753
 60.42754	 4.04000	      -0.32960	3.38753
 60.52764	 4.05000	      -0.32952	3.38753
 60.62770	 4.06000	      -0.32959	3.38752
 60.72772	 4.07000	      -0.32957	3.38752
 60.82782	 4.08000	      -0.32952	3.38752
 60.92780	 4.09000	      -0.32950	3.38751
 61.02787	 4.10000	      -0.32948	3.38751
 61.12790	 4.11000	      -0.32943	3.38750
 61.22789	 4.12000	      -0.32944	3.38750
 61.32790	 4.13000	      -0.32951	3.38749
 61.42789	 4.14000	      -0.32949	3.38749
 61.52785	 4.15000	      -0.32947	3.38748
 61.62789	 4.16000	      -0.32954	3.38748
 61.72792	 4.17000	      -0.32946	3.38747
 61.82790	 4.18000	      -0.32941	3.38747
 61.92792	 4.19000	      -0.32934	3.38746
 62.02789	 4.20000	      -0.32923	3.38745
 62.12793	 4.21000	      -0.32901	3.38745
 62.22797	 4.22000	      -0.32896	3.38744
 62.32797	 4.23000	      -0.32882	3.38743
 62.42803	 4.24000	      -0.32875	3.38742
 62.52807	 4.25000	      -0.32881	3.38741
 62.62813	 4.26000	      -0.32867	3.38741
 62.72818	 4.27000	      -0.32851	3.38740
 62.82831	 4.28000	      -0.32849	3.38739
 62.92848	 4.29000	      -0.32853	3.38738
 63.02862	 4.30000	      -0.32857	3.38737
 63.12888	 4.31000	      -0.32855	3.38736
 63.22902	 4.32000	      -0.32854	3.38735
 63.32911	 4.33000	      -0.32847	3.38734
 63.42925	 4.34000	      -0.32846	3.38733
 63.52939	 4.35000	      -0.32841	3.38732
 63.62949	 4.36000	      -0.32843	3.38731
 63.72951	 4.37000	      -0.32836	3.38730
 63.82959	 4.38000	      -0.32837	3.38729
 63.92964	 4.39000	      -0.32827	3.38728
 64.02977	 4.40000	      -0.32823	3.38726
 64.12982	 4.41000	      -0.32814	3.38725
 64.22984	 4.42000	      -0.32801	3.38724
 64.32980	 4.43000	      -0.32803	3.38723
 64.42969	 4.44000	      -0.32810	3.38722
 64.52962	 4.45000	      -0.32809	3.38720
 64.62948	 4.46000	      -0.32768	3.38719
 64.72944	 4.47000	      -0.32761	3.38718
 64.82934	 4.48000	      -0.32754	3.38716
 64.92915	 4.49000	      -0.32742	3.38715
 65.02897	 4.50000	      -0.32727	3.38713
 65.12874	 4.51000	      -0.32724	3.38712
 65.22861	 4.52000	      -0.32722	3.38710
 65.32851	 4.53000	      -0.32720	3.38709
 65.42839	 4.54000	      -0.32709	3.38707
 65.52825	 4.55000	      -0.32713	3.38706
 65.62815	 4.56000	      -0.32685	3.38704
 65.72803	 4.57000	      -0.32671	3.38703
 65.82797	 4.58000	      -0.32663	3.38701
 65.92787	 4.59000	      -0.32647	3.38699
 66.02772	 4.60000	      -0.32638	3.38698
 66.12764	 4.61000	      -0.32627	3.38696
 66.22759	 4.62000	      -0.32607	3.38694
 66.32757	 4.63000	      -0.32587	3.38693
 66.42752	 4.64000	      -0.32573	3.38691
 66.52741	 4.65000	      -0.32556	3.38689
 66.62741	 4.66000	      -0.32554	3.38687
 66.72731	 4.67000	      -0.32551	3.38685
 66.82720	 4.68000	      -0.32531	3.38684
 66.92711	 4.69000	      -0.32517	3.38682
 67.02707	 4.70000	      -0.32512	3.38680
 67.12702	 4.71000	      -0.32520	3.38678
 67.22702	 4.72000	      -0.32526	3.38676
 67.32702	 4.73000	      -0.32522	3.38674
 67.42703	 4.74000	      -0.32508	3.38672
 67.52698	 4.75000	      -0.32493	3.38670
 67.62698	 4.76000	      -0.32495	3.38668
 67.72697	 4.77000	      -0.32483	3.38666
 67.82693	 4.78000	      -0.32477	3.38663
 67.92690	 4.79000	      -0.32474	3.38661
 68.02685	 4.80000	      -0.32474	3.38659
 68.12682	 4.81000	      -0.32468	3.38657
 68.22680	 4.82000	      -0.32467	3.38655
 68.32675	 4.83000	      -0.32469	3.38652
 68.42687	 4.84000	      -0.32463	3.38650
 68.52705	 4.85000	      -0.32462	3.38648
 68.62716	 4.86000	      -0.32459	3.38646
 68.72733	 4.87000	      -0.32461	3.38643
 68.82746	 4.88000	      -0.32466	3.38641
 68.92762	 4.89000	      -0.32463	3.38638
 69.02779	 4.90000	      -0.32461	3.38636
 69.12797	 4.91000	      -0.32455	3.38634
 69.22813	 4.92000	      -0.32458	3.38631
 69.32816	 4.93000	      -0.32455	3.38629
 69.42820	 4.94000	      -0.32452	3.38626
 69.52841	 4.95000	      -0.32449	3.38624
 69.62856	 4.96000	      -0.32449	3.38621
 69.72872	 4.97000	      -0.32438	3.38618
 69.82890	 4.98000	      -0.32441	3.38616
 69.92907	 4.99000	      -0.32438	3.38613
 70.02928	 5.00000	      -0.32441	3.38611
 70.12933	 5.01000	      -0.32430	3.38608
 70.22938	 5.02000	      -0.32416	3.38605
 70.32936	 5.03000	      -0.32411	3.38602
 70.42930	 5.04000	      -0.32406	3.38600
 70.52929	 5.05000	      -0.32403	3.38597
 70.62921	 5.06000	      -0.32401	3.38594
 70.72923	 5.07000	      -0.32396	3.38591
 70.82925	 5.08000	      -0.32397	3.38588
 70.92923	 5.09000	      -0.32400	3.38585
 71.02920	 5.10000	      -0.32387	3.38583
 71.12920	 5.11000	      -0.32384	3.38580
 71.22918	 5.12000	      -0.32374	3.38577
 71.32915	 5.13000	      -0.32363	3.38574
 71.42915	 5.14000	      -0.32359	3.38571
 71.52911	 5.15000	      -0.32347	3.38568
 71.62895	 5.16000	      -0.32332	3.38565
 71.72884	 5.17000	      -0.32326	3.38562
 71.82869	 5.18000	      -0.32314	3.38558
 71.92854	 5.19000	      -0.32308	3.38555
 72.02843	 5.20000	      -0.32302	3.38552
 72.12834	 5.21000	      -0.32304	3.38549
 72.22833	 5.22000	      -0.32301	3.38546
 72.32828	 5.23000	      -0.32290	3.38543
 72.42831	 5.24000	      -0.32278	3.38539
 72.52826	 5.25000	      -0.32278	3.38536
 72.62826	 5.26000	      -0.32269	3.38533
 72.72823	 5.27000	      -0.32234	3.38529
 72.82816	 5.28000	      -0.32228	3.38526
 72.92816	 5.29000	      -0.32217	3.38523
 73.02816	 5.30000	      -0.32205	3.38519
 73.12818	 5.31000	      -0.32190	3.38516
 73.22813	 5.32000	      -0.32157	3.38512
 73.32813	 5.33000	      -0.32136	3.38509
 73.42815	 5.34000	      -0.32115	3.38505
 73.52813	 5.35000	      -0.32094	3.38502
 73.62810	 5.36000	      -0.32050	3.38498
 73.72811	 5.37000	      -0.32020	3.38495
 73.82813	 5.38000	      -0.31996	3.38491
 73.92823	 5.39000	      -0.31967	3.38488
 74.02831	 5.40000	      -0.31938	3.38484
 74.12844	 5.41000	      -0.31908	3.38480
 74.22857	 5.42000	      -0.31867	3.38477
 74.32874	 5.43000	      -0.31823	3.38473
 74.42890	 5.44000	      -0.31802	3.38469
 74.52900	 5.45000	      -0.31761	3.38465
 74.62907	 5.46000	      -0.31717	3.38462
 74.72913	 5.47000	      -0.31673	3.38458
 74.82923	 5.48000	      -0.31618	3.38454
 74.92923	 5.49000	      -0.31576	3.38450
 75.02921	 5.50000	      -0.31529	3.38446
 75.12920	 5.51000	      -0.31470	3.38442
 75.22923	 5.52000	      -0.31415	3.38438
 75.32921	 5.53000	      -0.31359	3.38435
 75.42928	 5.54000	      -0.31312	3.38431
 75.52931	 5.55000	      -0.31242	3.38427
 75.62931	 5.56000	      -0.31187	3.38423
 75.72931	 5.57000	      -0.31114	3.38418
 75.82928	 5.58000	      -0.31041	3.38414
 75.92923	 5.59000	      -0.30937	3.38410
 76.02915	 5.60000	      -0.30872	3.38406
 76.12907	 5.61000	      -0.30796	3.38402
 76.22900	 5.62000	      -0.30714	3.38398
 76.32887	 5.63000	      -0.30630	3.38394
 76.42875	 5.64000	      -0.30545	3.38389
 76.52874	 5.65000	      -0.30458	3.38385
 76.62874	 5.66000	      -0.30359	3.38381
 76.72869	 5.67000	      -0.30275	3.38377
 76.82864	 5.68000	      -0.30182	3.38372
 76.92864	 5.69000	      -0.30080	3.38368
 77.02866	 5.70000	      -0.29979	3.38364
 77.12862	 5.71000	      -0.29886	3.38359
 77.22861	 5.72000	      -0.29787	3.38355
 77.32852	 5.73000	      -0.29691	3.38350
 77.42851	 5.74000	      -0.29597	3.38346
 77.52848	 5.75000	      -0.29481	3.38341
 77.62849	 5.76000	      -0.29333	3.38337
 77.72851	 5.77000	      -0.29214	3.38332
 77.82849	 5.78000	      -0.29109	3.38328
 77.92848	 5.79000	      -0.29010	3.38323
 78.02848	 5.80000	      -0.28894	3.38319
 78.12851	 5.81000	      -0.28785	3.38314
 78.22857	 5.82000	      -0.28668	3.38309
 78.32859	 5.83000	      -0.28534	3.38305
 78.42866	 5.84000	      -0.28387	3.38300
 78.52869	 5.85000	      -0.28270	3.38295
 78.62877	 5.86000	      -0.28141	3.38291
 78.72879	 5.87000	      -0.28007	3.38286
 78.82887	 5.88000	      -0.27860	3.38281
 78.92897	 5.89000	      -0.27711	3.38276
 79.02900	 5.90000	      -0.27570	3.38271
 79.12907	 5.91000	      -0.27442	3.38267
 79.22908	 5.92000	      -0.27266	3.38262
 79.32911	 5.93000	      -0.27086	3.38257
 79.42915	 5.94000	      -0.26933	3.38252
 79.52918	 5.95000	      -0.26777	3.38247
 79.62928	 5.96000	      -0.26603	3.38242
 79.72933	 5.97000	      -0.26438	3.38237
 79.82939	 5.98000	      -0.26270	3.38232
 79.92944	 5.99000	      -0.26079	3.38227
 80.02944	 6.00000	      -0.25913	3.38222
 80.12939	 6.01000	      -0.25734	3.38217
 80.22936	 6.02000	      -0.25547	3.38211
 80.32936	 6.03000	      -0.25360	3.38206
 80.42931	 6.04000	      -0.25144	3.38201
 80.52929	 6.05000	      -0.24928	3.38196
 80.62929	 6.06000	      -0.24733	3.38191
 80.72928	 6.07000	      -0.24531	3.38186
 80.82928	 6.08000	      -0.24321	3.38180
 80.92931	 6.09000	      -0.24114	3.38175
 81.02929	 6.10000	      -0.23895	3.38170
 81.12931	 6.11000	      -0.23674	3.38164
 81.22938	 6.12000	      -0.23441	3.38159
 81.32938	 6.13000	      -0.23185	3.38154
 81.42946	 6.14000	      -0.22949	3.38148
 81.52951	 6.15000	      -0.22705	3.38143
 81.62946	 6.16000	      -0.22463	3.38137
 81.72949	 6.17000	      -0.22218	3.38132
 81.82951	 6.18000	      -0.21965	3.38126
 81.92954	 6.19000	      -0.21703	3.38121
 82.02969	 6.20000	      -0.21438	3.38115
 82.12980	 6.21000	      -0.21146	3.38110
 82.22989	 6.22000	      -0.20877	3.38104
 82.32992	 6.23000	      -0.20602	3.38098
 82.42997	 6.24000	      -0.20278	3.38093
 82.52998	 6.25000	      -0.19998	3.38087
 82.63002	 6.26000	      -0.19699	3.38081
 82.72997	 6.27000	      -0.19390	3.38076
 82.82985	 6.28000	      -0.19072	3.38070
 82.92982	 6.29000	      -0.18750	3.38064
 83.02977	 6.30000	      -0.18417	3.38058
 83.12967	 6.31000	      -0.18080	3.38053
 83.22967	 6.32000	      -0.17740	3.38047
 83.32972	 6.33000	      -0.17374	3.38041
 83.42972	 6.34000	      -0.17011	3.38035
 83.52972	 6.35000	      -0.16643	3.38029
 83.62980	 6.36000	      -0.16248	3.38023
 83.72975	 6.37000	      -0.15867	3.38017
 83.82974	 6.38000	      -0.15452	3.38011
 83.92980	 6.39000	      -0.15052	3.38005
 84.02979	 6.40000	      -0.14649	3.37999
 84.12974	 6.41000	      -0.14236	3.37993
 84.22969	 6.42000	      -0.13826	3.37987
 84.32962	 6.43000	      -0.13395	3.37981
 84.42956	 6.44000	      -0.12956	3.37975
 84.52957	 6.45000	      -0.12491	3.37969
 84.62951	 6.46000	      -0.12020	3.37963
 84.72951	 6.47000	      -0.11555	3.37956
 84.82961	 6.48000	      -0.11073	3.37950
 84.92969	 6.49000	      -0.10561	3.37944
 85.02969	 6.50000	      -0.10052	3.37938
 85.12975	 6.51000	-9.538626e-002	3.37932
 85.22974	 6.52000	-8.990322e-002	3.37925
 85.32977	 6.53000	-8.439109e-002	3.37919
 85.42970	 6.54000	-7.890842e-002	3.37913
 85.52966	 6.55000	-7.313532e-002	3.37906
 85.62962	 6.56000	-6.736238e-002	3.37900
 85.72966	 6.57000	-6.118447e-002	3.37893
 85.82969	 6.58000	-5.500557e-002	3.37887
 85.92969	 6.59000	-4.853847e-002	3.37880
 86.02966	 6.60000	-4.210113e-002	3.37874
 86.12975	 6.61000	-3.552289e-002	3.37867
 86.22982	 6.62000	-2.865487e-002	3.37861
 86.32992	 6.63000	-2.149669e-002	3.37854
 86.42998	 6.64000	-1.425262e-002	3.37848
 86.53005	 6.65000	-6.834787e-003	3.37841
 86.63011	 6.66000	 1.191329e-003	3.37835
 86.73011	 6.67000	 8.841463e-003	3.37828
 86.83011	 6.68000	 1.663648e-002	3.37821
 86.93013	 6.69000	 2.518405e-002	3.37815
 87.03021	 6.70000	 3.361112e-002	3.37808
 87.13031	 6.71000	 4.222986e-002	3.37801
 87.23039	 6.72000	 5.145626e-002	3.37794
 87.33046	 6.73000	 6.076942e-002	3.37788
 87.43046	 6.74000	 7.025686e-002	3.37781
 87.53051	 6.75000	 8.000573e-002	3.37774
 87.63056	 6.76000	 9.012947e-002	3.37767
 87.73061	 6.77000	       0.10080	3.37760
 87.83066	 6.78000	       0.11177	3.37753
 87.93077	 6.79000	       0.12282	3.37746
 88.03085	 6.80000	       0.13402	3.37739
 88.13079	 6.81000	       0.14591	3.37732
 88.23075	 6.82000	       0.15817	3.37725
 88.33070	 6.83000	       0.17063	3.37718
 88.43074	 6.84000	       0.18367	3.37711
 88.53077	 6.85000	       0.19660	3.37704
 88.63079	 6.86000	       0.21028	3.37697
 88.73087	 6.87000	       0.22445	3.37690
 88.83089	 6.88000	       0.23877	3.37683
 88.93087	 6.89000	       0.25343	3.37676
 89.03084	 6.90000	       0.26925	3.37669
 89.13085	 6.91000	       0.28513	3.37661
 89.23085	 6.92000	       0.30145	3.37654
 89.33089	 6.93000	       0.31783	3.37647
 89.43092	 6.94000	       0.33479	3.37640
 89.53095	 6.95000	       0.35262	3.37632
 89.63102	 6.96000	       0.37132	3.37625
 89.73098	 6.97000	       0.39022	3.37618
 89.83100	 6.98000	       0.40981	3.37610
 89.93102	 6.99000	       0.42952	3.37603
 90.03100	 7.00000	       0.45048	3.37596
 90.13108	 7.01000	       0.47155	3.37588
 90.23118	 7.02000	       0.49296	3.37581
 90.33126	 7.03000	       0.51493	3.37573
 90.43133	 7.04000	       0.53788	3.37566
 90.53139	 7.05000	       0.56182	3.37558
 90.63141	 7.06000	       0.58663	3.37551
 90.73138	 7.07000	       0.61135	3.37543
 90.83141	 7.08000	       0.63656	3.37536
 90.93151	 7.09000	       0.66256	3.37528
 91.03159	 7.10000	       0.68984	3.37520
 91.13164	 7.11000	       0.71919	3.37513
 91.23164	 7.12000	       0.74753	3.37505
 91.33166	 7.13000	       0.77642	3.37497
 91.43179	 7.14000	       0.80658	3.37489
 91.53185	 7.15000	       0.83750	3.37482
 91.63195	 7.16000	       0.86859	3.37474
 91.73210	 7.17000	       0.90021	3.37466
 91.83225	 7.18000	       0.93324	3.37458
 91.93234	 7.19000	       0.96706	3.37450
 92.03246	 7.20000	       1.00213	3.37443
 92.13257	 7.21000	       1.03753	3.37435
 92.23266	 7.22000	       1.07295	3.37427
 92.33275	 7.23000	       1.10879	3.37419
 92.43279	 7.24000	       1.14593	3.37411
 92.53284	 7.25000	       1.18350	3.37403
 92.63297	 7.26000	       1.22174	3.37395
 92.73318	 7.27000	       1.26028	3.37387
 92.83333	 7.28000	       1.30006	3.37379
 92.93344	 7.29000	       1.34033	3.37371
 93.03352	 7.30000	       1.38130	3.37363
 93.13356	 7.31000	       1.42187	3.37355
 93.23356	 7.32000	       1.46320	3.37346
 93.33361	 7.33000	       1.50462	3.37338
 93.43367	 7.34000	       1.54648	3.37330
 93.53369	 7.35000	       1.58836	3.37322
 93.63366	 7.36000	       1.63045	3.37314
 93.73361	 7.37000	       1.67261	3.37305
 93.83348	 7.38000	       1.71467	3.37297
 93.93334	 7.39000	       1.75683	3.37289
 94.03323	 7.40000	       1.79872	3.37281
 94.13312	 7.41000	       1.84028	3.37272
 94.23302	 7.42000	       1.88166	3.37264
 94.33292	 7.43000	       1.92241	3.37256
 94.43282	 7.44000	       1.96261	3.37247
 94.53280	 7.45000	       2.00214	3.37239
 94.63274	 7.46000	       2.04119	3.37230
 94.73264	 7.47000	       2.07910	3.37222
 94.83251	 7.48000	       2.11583	3.37213
 94.93241	 7.49000	       2.15161	3.37205
 95.03236	 7.50000	       2.18637	3.37196
 95.13226	 7.51000	       2.21980	3.37188
 95.23220	 7.52000	       2.25212	3.37179
 95.33210	 7.53000	       2.28245	3.37171
 95.43202	 7.54000	       2.31162	3.37162
 95.53187	 7.55000	       2.33879	3.37153
 95.63175	 7.56000	       2.36435	3.37145
 95.73167	 7.57000	       2.38796	3.37136
 95.83151	 7.58000	       2.40998	3.37127
 95.93141	 7.59000	       2.42959	3.37119
 96.03123	 7.60000	       2.44751	3.37110
 96.13112	 7.61000	       2.46335	3.37101
 96.23098	 7.62000	       2.47675	3.37092
 96.33089	 7.63000	       2.48831	3.37083
 96.43074	 7.64000	       2.49760	3.37075
 96.53052	 7.65000	       2.50475	3.37066
 96.63030	 7.66000	       2.50953	3.37057
 96.73000	 7.67000	       2.51172	3.37048
 96.82979	 7.68000	       2.51218	3.37039
 96.92956	 7.69000	       2.51014	3.37030
 97.02925	 7.70000	       2.50561	3.37021
 97.12895	 7.71000	       2.49925	3.37012
 97.22867	 7.72000	       2.49055	3.37003
 97.32848	 7.73000	       2.48010	3.36994
 97.42818	 7.74000	       2.46690	3.36985
 97.52793	 7.75000	       2.45199	3.36976
 97.62772	 7.76000	       2.43482	3.36967
 97.72749	 7.77000	       2.41605	3.36958
 97.82731	 7.78000	       2.39534	3.36949
 97.92715	 7.79000	       2.37286	3.36940
 98.02700	 7.80000	       2.34878	3.36930
 98.12682	 7.81000	       2.32281	3.36921
 98.22662	 7.82000	       2.29567	3.36912
 98.32648	 7.83000	       2.26706	3.36903
 98.42633	 7.84000	       2.23720	3.36893
 98.52618	 7.85000	       2.20606	3.36884
 98.62605	 7.86000	       2.17388	3.36875
 98.72595	 7.87000	       2.14045	3.36865
 98.82579	 7.88000	       2.10643	3.36856
 98.92567	 7.89000	       2.07158	3.36847
 99.02562	 7.90000	       2.03605	3.36837
 99.12562	 7.91000	       1.99984	3.36828
 99.22559	 7.92000	       1.96316	3.36818
 99.32557	 7.93000	       1.92619	3.36809
 99.42557	 7.94000	       1.88889	3.36799
 99.52567	 7.95000	       1.85107	3.36790
 99.62566	 7.96000	       1.81331	3.36780
 99.72566	 7.97000	       1.77552	3.36771
 99.82569	 7.98000	       1.73772	3.36761
 99.92570	 7.99000	       1.69993	3.36752
100.02574	 8.00000	       1.66225	3.36742
100.12579	 8.01000	       1.62480	3.36732
100.22579	 8.02000	       1.58764	3.36723
100.32575	 8.03000	       1.55069	3.36713
100.42584	 8.04000	       1.51402	3.36703
100.52592	 8.05000	       1.47816	3.36693
100.62600	 8.06000	       1.44256	3.36684
100.72610	 8.07000	       1.40722	3.36674
100.82625	 8.08000	       1.37275	3.36664
100.92633	 8.09000	       1.33836	3.36654
101.02639	 8.10000	       1.30460	3.36644
101.12651	 8.11000	       1.27145	3.36634
101.22666	 8.12000	       1.23888	3.36624
101.32682	 8.13000	       1.20700	3.36614
101.42695	 8.14000	       1.17544	3.36604
101.52702	 8.15000	       1.14501	3.36594
101.62713	 8.16000	       1.11505	3.36585
101.72726	 8.17000	       1.08522	3.36574
101.82739	 8.18000	       1.05595	3.36564
101.92756	 8.19000	       1.02804	3.36554
102.02767	 8.20000	       1.00040	3.36544
102.12787	 8.21000	       0.97418	3.36534
102.22803	 8.22000	       0.94790	3.36524
102.32821	 8.23000	       0.92191	3.36514
102.42836	 8.24000	       0.89668	3.36504
102.52841	 8.25000	       0.87263	3.36494
102.62849	 8.26000	       0.84899	3.36483
102.72854	 8.27000	       0.82589	3.36473
102.82857	 8.28000	       0.80355	3.36463
102.92862	 8.29000	       0.78145	3.36453
103.02877	 8.30000	       0.75968	3.36442
103.12885	 8.31000	       0.73856	3.36432
103.22889	 8.32000	       0.71801	3.36422
103.32890	 8.33000	       0.69845	3.36411
103.42893	 8.34000	       0.68040	3.36401
103.52900	 8.35000	       0.66185	3.36390
103.62902	 8.36000	       0.64327	3.36380
103.72908	 8.37000	       0.62510	3.36370
103.82908	 8.38000	       0.60786	3.36359
103.92910	 8.39000	       0.59209	3.36349
104.02920	 8.40000	       0.57583	3.36338
104.12925	 8.41000	       0.55970	3.36327
104.22925	 8.42000	       0.54392	3.36317
104.32928	 8.43000	       0.52869	3.36306
104.42934	 8.44000	       0.51395	3.36296
104.52946	 8.45000	       0.49976	3.36285
104.62956	 8.46000	       0.48662	3.36274
104.72966	 8.47000	       0.47435	3.36264
104.82979	 8.48000	       0.46112	3.36253
104.92993	 8.49000	       0.44827	3.36242
105.02997	 8.50000	       0.43565	3.36232
105.12995	 8.51000	       0.42384	3.36221
105.23003	 8.52000	       0.41219	3.36210
105.33008	 8.53000	       0.40085	3.36199
105.43020	 8.54000	       0.38960	3.36189
105.53026	 8.55000	       0.37901	3.36178
105.63034	 8.56000	       0.36843	3.36167
105.73036	 8.57000	       0.35802	3.36156
105.83039	 8.58000	       0.34804	3.36145
105.93046	 8.59000	       0.33856	3.36134
106.03054	 8.60000	       0.32933	3.36123
106.13066	 8.61000	       0.32009	3.36112
106.23080	 8.62000	       0.31125	3.36101
106.33097	 8.63000	       0.30268	3.36090
106.43108	 8.64000	       0.29416	3.36079
106.53118	 8.65000	       0.28573	3.36068
106.63125	 8.66000	       0.27779	3.36057
106.73133	 8.67000	       0.26988	3.36046
106.83141	 8.68000	       0.26241	3.36035
106.93143	 8.69000	       0.25505	3.36024
107.03148	 8.70000	       0.24778	3.36013
107.13157	 8.71000	       0.24082	3.36001
107.23167	 8.72000	       0.23393	3.35990
107.33177	 8.73000	       0.22746	3.35979
107.43184	 8.74000	       0.22092	3.35968
107.53189	 8.75000	       0.21448	3.35956
107.63187	 8.76000	       0.20829	3.35945
107.73185	 8.77000	       0.20222	3.35934
107.83184	 8.78000	       0.19624	3.35923
107.93182	 8.79000	       0.19049	3.35911
108.03169	 8.80000	       0.18506	3.35900
108.13159	 8.81000	       0.17948	3.35889
108.23144	 8.82000	       0.17417	3.35877
108.33130	 8.83000	       0.16912	3.35866
108.43110	 8.84000	       0.16393	3.35854
108.53090	 8.85000	       0.15879	3.35843
108.63071	 8.86000	       0.15403	3.35831
108.73052	 8.87000	       0.14930	3.35820
108.83034	 8.88000	       0.14454	3.35808
108.93023	 8.89000	       0.13995	3.35797
109.03018	 8.90000	       0.13546	3.35785
109.13010	 8.91000	       0.13138	3.35774
109.22995	 8.92000	       0.12719	3.35762
109.32979	 8.93000	       0.12299	3.35750
109.42964	 8.94000	       0.11885	3.35739
109.52956	 8.95000	       0.11486	3.35727
109.62952	 8.96000	       0.11099	3.35716
109.72949	 8.97000	       0.10720	3.35704
109.82944	 8.98000	       0.10353	3.35692
109.92938	 8.99000	 9.980215e-002	3.35680
110.02933	 9.00000	 9.627516e-002	3.35669
110.12926	 9.01000	 9.294953e-002	3.35657
110.22918	 9.02000	 8.921658e-002	3.35645
110.32905	 9.03000	 8.577443e-002	3.35633
110.42895	 9.04000	 8.250706e-002	3.35621
110.52890	 9.05000	 7.923909e-002	3.35609
110.62892	 9.06000	 7.579625e-002	3.35597
110.72895	 9.07000	 7.267262e-002	3.35586
110.82895	 9.08000	 6.972457e-002	3.35574
110.92900	 9.09000	 6.692112e-002	3.35562
111.02897	 9.10000	 6.396751e-002	3.35550
111.12897	 9.11000	 6.099899e-002	3.35538
111.22902	 9.12000	 5.820533e-002	3.35526
111.32902	 9.13000	 5.552718e-002	3.35514
111.42905	 9.14000	 5.255843e-002	3.35501
111.52900	 9.15000	 5.002624e-002	3.35489
111.62900	 9.16000	 4.729080e-002	3.35477
111.72898	 9.17000	 4.470001e-002	3.35465
111.82907	 9.18000	 4.210902e-002	3.35453
111.92916	 9.19000	 3.963433e-002	3.35441
112.02931	 9.20000	 3.710113e-002	3.35429
112.12941	 9.21000	 3.477013e-002	3.35416
112.22949	 9.22000	 3.232246e-002	3.35404
112.32964	 9.23000	 3.019461e-002	3.35392
112.42985	 9.24000	 2.786347e-002	3.35379
112.53007	 9.25000	 2.544439e-002	3.35367
112.63018	 9.26000	 2.322944e-002	3.35355
112.73028	 9.27000	 2.104232e-002	3.35342
112.83039	 9.28000	 1.894395e-002	3.35330
112.93049	 9.29000	 1.664074e-002	3.35318
113.03057	 9.30000	 1.460356e-002	3.35305
113.13069	 9.31000	 1.280636e-002	3.35293
113.23079	 9.32000	 1.074757e-002	3.35280
113.33087	 9.33000	 8.776796e-003	3.35268
113.43095	 9.34000	 6.950808e-003	3.35255
113.53102	 9.35000	 4.978987e-003	3.35243
113.63107	 9.36000	 3.239763e-003	3.35230
113.73108	 9.37000	 1.529930e-003	3.35218
113.83120	 9.38000	-2.674604e-004	3.35205
113.93121	 9.39000	-1.977168e-003	3.35193
114.03120	 9.40000	-3.596847e-003	3.35180
114.13118	 9.41000	-5.383051e-003	3.35167
114.23123	 9.42000	-6.936976e-003	3.35155
114.33138	 9.43000	-8.578066e-003	3.35142
114.43143	 9.44000	-1.013185e-002	3.35129
114.53148	 9.45000	-1.168613e-002	3.35117
114.63154	 9.46000	-1.326891e-002	3.35104
114.73162	 9.47000	-1.458983e-002	3.35091
114.83169	 9.48000	-1.602708e-002	3.35078
114.93179	 9.49000	-1.743604e-002	3.35066
115.03179	 9.50000	-1.891024e-002	3.35053
115.13184	 9.51000	-2.042874e-002	3.35040
115.23182	 9.52000	-2.197689e-002	3.35027
115.33187	 9.53000	-2.334945e-002	3.35014
115.43192	 9.54000	-2.478158e-002	3.35001
115.53195	 9.55000	-2.621344e-002	3.34988
115.63195	 9.56000	-2.752876e-002	3.34975
115.73198	 9.57000	-2.899038e-002	3.34963
115.83195	 9.58000	-3.039341e-002	3.34950
115.93185	 9.59000	-3.153365e-002	3.34937
116.03184	 9.60000	-3.281982e-002	3.34924
116.13180	 9.61000	-3.395621e-002	3.34911
116.23179	 9.62000	-3.518174e-002	3.34897
116.33167	 9.63000	-3.643499e-002	3.34884
116.43149	 9.64000	-3.768911e-002	3.34871
116.53138	 9.65000	-3.897327e-002	3.34858
116.63125	 9.66000	-3.970246e-002	3.34845
116.73110	 9.67000	-4.083978e-002	3.34832
116.83098	 9.68000	-4.218256e-002	3.34819
116.93087	 9.69000	-4.340799e-002	3.34806
117.03074	 9.70000	-4.449131e-002	3.34792
117.13061	 9.71000	-4.546666e-002	3.34779
117.23046	 9.72000	-4.646974e-002	3.34766
117.33039	 9.73000	-4.762037e-002	3.34753
117.43036	 9.74000	-4.859637e-002	3.34739
117.53028	 9.75000	-4.957092e-002	3.34726
117.63023	 9.76000	-5.066383e-002	3.34713
117.73021	 9.77000	-5.169731e-002	3.34699
117.83012	 9.78000	-5.270205e-002	3.34686
117.93011	 9.79000	-5.356096e-002	3.34673
118.03005	 9.80000	-5.455712e-002	3.34659
118.13000	 9.81000	-5.553173e-002	3.34646
118.22995	 9.82000	-5.656441e-002	3.34632
118.32992	 9.83000	-5.753919e-002	3.34619
118.42997	 9.84000	-5.833848e-002	3.34605
118.53002	 9.85000	-5.940099e-002	3.34592
118.63007	 9.86000	-6.005482e-002	3.34578
118.73010	 9.87000	-6.097189e-002	3.34565
118.83015	 9.88000	-6.180143e-002	3.34551
118.93016	 9.89000	-6.254267e-002	3.34538
119.03025	 9.90000	-6.343166e-002	3.34524
119.13034	 9.91000	-6.435291e-002	3.34510
119.23046	 9.92000	-6.515781e-002	3.34497
119.33043	 9.93000	-6.604923e-002	3.34483
119.43034	 9.94000	-6.688310e-002	3.34469
119.53033	 9.95000	-6.768783e-002	3.34456
119.63038	 9.96000	-6.834620e-002	3.34442
119.73036	 9.97000	-6.903460e-002	3.34428
119.83039	 9.98000	-6.995637e-002	3.34414
119.93044	 9.99000	-7.082019e-002	3.34400
120.03048	10.00000	-7.121668e-002	3.34387
120.13051	10.01000	-7.214291e-002	3.34373
120.23057	10.02000	-7.298121e-002	3.34359
120.33070	10.03000	-7.352817e-002	3.34345
120.43074	10.04000	-7.395752e-002	3.34331
120.53077	10.05000	-7.488329e-002	3.34317
120.63072	10.06000	-7.569224e-002	3.34303
120.73069	10.07000	-7.626825e-002	3.34289
120.83070	10.08000	-7.690200e-002	3.34275
120.93067	10.09000	-7.765348e-002	3.34261
121.03069	10.10000	-7.843725e-002	3.34247
121.13066	10.11000	-7.908260e-002	3.34233
121.23062	10.12000	-7.978609e-002	3.34219
121.33074	10.13000	-8.040197e-002	3.34205
121.43085	10.14000	-8.110598e-002	3.34191
121.53095	10.15000	-8.178082e-002	3.34177
121.63097	10.16000	-8.239801e-002	3.34163
121.73097	10.17000	-8.313105e-002	3.34149
121.83097	10.18000	-8.395263e-002	3.34134
121.93095	10.19000	-8.453962e-002	3.34120
122.03098	10.20000	-8.518860e-002	3.34106
122.13100	10.21000	-8.587374e-002	3.34092
122.23102	10.22000	-8.614956e-002	3.34078
122.33097	10.23000	-8.671744e-002	3.34063
122.43093	10.24000	-8.731500e-002	3.34049
122.53092	10.25000	-8.785414e-002	3.34035
122.63098	10.26000	-8.842296e-002	3.34020
122.73103	10.27000	-8.890410e-002	3.34006
122.83102	10.28000	-8.944339e-002	3.33992
122.93111	10.29000	-9.001200e-002	3.33977
123.03113	10.30000	-9.060100e-002	3.33963
123.13111	10.31000	-9.117038e-002	3.33948
123.23108	10.32000	-9.162241e-002	3.33934
123.33100	10.33000	-9.216264e-002	3.33920
123.43107	10.34000	-9.267366e-002	3.33905
123.53103	10.35000	-9.318474e-002	3.33891
123.63100	10.36000	-9.366660e-002	3.33876
123.73092	10.37000	-9.370961e-002	3.33862
123.83093	10.38000	-9.442564e-002	3.33847
123.93095	10.39000	-9.511209e-002	3.33832
124.03098	10.40000	-9.548077e-002	3.33818
124.13102	10.41000	-9.594466e-002	3.33803
124.23102	10.42000	-9.640783e-002	3.33788
124.33102	10.43000	-9.693033e-002	3.33774
124.43095	10.44000	-9.739167e-002	3.33759
124.53087	10.45000	-9.794509e-002	3.33744
124.63077	10.46000	-9.802867e-002	3.33730
124.73074	10.47000	-9.846317e-002	3.33715
124.83067	10.48000	-9.898476e-002	3.33700
124.93057	10.49000	-9.956650e-002	3.33686
125.03049	10.50000	-9.974055e-002	3.33671
125.13044	10.51000	      -0.10022	3.33656
125.23046	10.52000	      -0.10075	3.33641
125.33044	10.53000	      -0.10117	3.33626
125.43038	10.54000	      -0.10167	3.33611
125.53023	10.55000	      -0.10203	3.33597
125.63015	10.56000	      -0.10247	3.33582
125.73013	10.57000	      -0.10277	3.33567
125.83008	10.58000	      -0.10316	3.33552
125.92993	10.59000	      -0.10349	3.33537
126.02982	10.60000	      -0.10383	3.33522
126.12975	10.61000	      -0.10427	3.33507
126.22972	10.62000	      -0.10453	3.33492
126.32966	10.63000	      -0.10494	3.33477
126.42969	10.64000	      -0.10511	3.33462
126.52975	10.65000	      -0.10549	3.33447
126.62984	10.66000	      -0.10587	3.33432
126.72987	10.67000	      -0.10633	3.33416
126.82993	10.68000	      -0.10668	3.33401
126.93002	10.69000	      -0.10709	3.33386
127.03011	10.70000	      -0.10780	3.33371
127.13018	10.71000	      -0.10853	3.33356
127.23018	10.72000	      -0.10894	3.33340
127.33023	10.73000	      -0.10929	3.33325
127.43026	10.74000	      -0.10961	3.33310
127.53033	10.75000	      -0.10999	3.33295
127.63039	10.76000	      -0.11023	3.33279
127.73046	10.77000	      -0.11078	3.33264
127.83057	10.78000	      -0.11131	3.33249
127.93069	10.79000	      -0.11169	3.33233
128.03075	10.80000	      -0.11213	3.33218
128.13080	10.81000	      -0.11259	3.33203
128.23079	10.82000	      -0.11297	3.33187
128.33080	10.83000	      -0.11334	3.33172
128.43080	10.84000	      -0.11386	3.33156
128.53079	10.85000	      -0.11424	3.33141
128.63079	10.86000	      -0.11470	3.33125
128.73077	10.87000	      -0.11496	3.33110
128.83077	10.88000	      -0.11545	3.33094
128.93077	10.89000	      -0.11582	3.33079
129.03077	10.90000	      -0.11664	3.33063
129.13079	10.91000	      -0.11705	3.33048
129.23079	10.92000	      -0.11755	3.33032
129.33069	10.93000	      -0.11808	3.33016
129.43067	10.94000	      -0.11860	3.33001
129.53067	10.95000	      -0.11916	3.32985
129.63062	10.96000	      -0.11960	3.32970
129.73062	10.97000	      -0.12013	3.32954
129.83064	10.98000	      -0.12069	3.32938
129.93072	10.99000	      -0.12128	3.32922
130.03072	11.00000	      -0.12184	3.32907
130.13074	11.01000	      -0.12250	3.32891
130.23074	11.02000	      -0.12311	3.32875
130.33074	11.03000	      -0.12381	3.32859
130.43074	11.04000	      -0.12459	3.32843
130.53062	11.05000	      -0.12528	3.32828
130.63056	11.06000	      -0.12568	3.32812
130.73046	11.07000	      -0.12650	3.32796
130.83043	11.08000	      -0.12722	3.32780
130.93043	11.09000	      -0.12792	3.32764
131.03039	11.10000	      -0.12872	3.32748
131.13046	11.11000	      -0.12945	3.32732
131.23048	11.12000	      -0.12976	3.32716
131.33057	11.13000	      -0.13057	3.32700
131.43064	11.14000	      -0.13150	3.32684
131.53069	11.15000	      -0.13214	3.32668
131.63066	11.16000	      -0.13275	3.32652
131.73062	11.17000	      -0.13347	3.32636
131.83061	11.18000	      -0.13420	3.32620
131.93054	11.19000	      -0.13498	3.32604
132.03054	11.20000	      -0.13595	3.32588
132.13049	11.21000	      -0.13683	3.32572
132.23048	11.22000	      -0.13760	3.32556
132.33046	11.23000	      -0.13837	3.32539
132.43048	11.24000	      -0.13919	3.32523
132.53052	11.25000	      -0.14011	3.32507
132.63054	11.26000	      -0.14111	3.32491
132.73057	11.27000	      -0.14196	3.32474
132.83062	11.28000	      -0.14270	3.32458
132.93066	11.29000	      -0.14350	3.32442
133.03069	11.30000	      -0.14441	3.32426
133.13056	11.31000	      -0.14525	3.32409
133.23048	11.32000	      -0.14623	3.32393
133.33044	11.33000	      -0.14719	3.32377
133.43046	11.34000	      -0.14803	3.32360
133.53044	11.35000	      -0.14890	3.32344
133.63043	11.36000	      -0.14985	3.32327
133.73044	11.37000	      -0.15066	3.32311
133.83047	11.38000	      -0.15153	3.32295
133.93052	11.39000	      -0.15260	3.32278
134.03051	11.40000	      -0.15362	3.32262
134.13056	11.41000	      -0.15460	3.32245
134.23061	11.42000	      -0.15561	3.32229
134.33059	11.43000	      -0.15682	3.32212
134.43062	11.44000	      -0.15792	3.32195
134.53067	11.45000	      -0.15893	3.32179
134.63072	11.46000	      -0.15970	3.32162
134.73082	11.47000	      -0.16065	3.32146
134.83085	11.48000	      -0.16190	3.32129
134.93093	11.49000	      -0.16288	3.32112
135.03093	11.50000	      -0.16417	3.32096
135.13097	11.51000	      -0.16525	3.32079
135.23105	11.52000	      -0.16621	3.32062
135.33111	11.53000	      -0.16727	3.32046
135.43113	11.54000	      -0.16855	3.32029
135.53115	11.55000	      -0.16970	3.32012
135.63123	11.56000	      -0.17081	3.31995
135.73130	11.57000	      -0.17180	3.31978
135.83131	11.58000	      -0.17288	3.31962
135.93136	11.59000	      -0.17414	3.31945
136.03139	11.60000	      -0.17539	3.31928
136.13146	11.61000	      -0.17656	3.31911
136.23152	11.62000	      -0.17781	3.31894
136.33161	11.63000	      -0.17895	3.31877
136.43166	11.64000	      -0.18003	3.31860
136.53166	11.65000	      -0.18122	3.31843
136.63159	11.66000	      -0.18245	3.31826
136.73161	11.67000	      -0.18382	3.31809
136.83161	11.68000	      -0.18490	3.31792
136.93157	11.69000	      -0.18624	3.31775
137.03152	11.70000	      -0.18741	3.31758
137.13152	11.71000	      -0.18854	3.31741
137.23143	11.72000	      -0.18979	3.31724
137.33133	11.73000	      -0.19093	3.31707
137.43121	11.74000	      -0.19192	3.31690
137.53110	11.75000	      -0.19338	3.31673
137.63098	11.76000	      -0.19463	3.31656
137.73090	11.77000	      -0.19579	3.31639
137.83084	11.78000	      -0.19705	3.31622
137.93077	11.79000	      -0.19830	3.31604
138.03066	11.80000	      -0.19953	3.31587
138.13057	11.81000	      -0.20087	3.31570
138.23048	11.82000	      -0.20218	3.31553
138.33041	11.83000	      -0.20345	3.31536
138.43034	11.84000	      -0.20470	3.31518
138.53041	11.85000	      -0.20571	3.31501
138.63049	11.86000	      -0.20699	3.31484
138.73057	11.87000	      -0.20812	3.31466
138.83057	11.88000	      -0.20925	3.31449
138.93059	11.89000	      -0.21041	3.31432
139.03062	11.90000	      -0.21156	3.31414
139.13062	11.91000	      -0.21277	3.31397
139.23067	11.92000	      -0.21397	3.31379
139.33079	11.93000	      -0.21518	3.31362
139.43092	11.94000	      -0.21630	3.31344
139.53105	11.95000	      -0.21721	3.31327
139.63115	11.96000	      -0.21812	3.31309
139.73123	11.97000	      -0.21930	3.31292
139.83130	11.98000	      -0.22053	3.31274
139.93133	11.99000	      -0.22162	3.31257
140.03136	12.00000	      -0.22277	3.31239
140.13136	12.01000	      -0.22392	3.31222
140.23139	12.02000	      -0.22513	3.31204
140.33144	12.03000	      -0.22584	3.31186
140.43154	12.04000	      -0.22673	3.31169
140.53151	12.05000	      -0.22776	3.31151
140.63146	12.06000	      -0.22856	3.31134
140.73139	12.07000	      -0.22930	3.31116
140.83135	12.08000	      -0.23030	3.31098
140.93130	12.09000	      -0.23122	3.31080
141.03130	12.10000	      -0.23172	3.31063
141.13130	12.11000	      -0.23264	3.31045
141.23123	12.12000	      -0.23350	3.31027
141.33108	12.13000	      -0.23374	3.31009
141.43100	12.14000	      -0.23445	3.30992
141.53087	12.15000	      -0.23525	3.30974
141.63082	12.16000	      -0.23600	3.30956
141.73075	12.17000	      -0.23665	3.30938
141.83064	12.18000	      -0.23725	3.30920
141.93056	12.19000	      -0.23775	3.30902
142.03051	12.20000	      -0.23799	3.30885
142.13057	12.21000	      -0.23842	3.30867
142.23064	12.22000	      -0.23902	3.30849
142.33072	12.23000	      -0.23959	3.30831
142.43074	12.24000	      -0.23971	3.30813
142.53077	12.25000	      -0.24005	3.30795
142.63079	12.26000	      -0.24047	3.30777
142.73094	12.27000	      -0.24086	3.30759
142.83102	12.28000	      -0.24131	3.30741
142.93110	12.29000	      -0.24165	3.30722
143.03112	12.30000	      -0.24195	3.30704
143.13115	12.31000	      -0.24221	3.30686
143.23123	12.32000	      -0.24247	3.30668
143.33130	12.33000	      -0.24279	3.30650
143.43139	12.34000	      -0.24287	3.30632
143.53146	12.35000	      -0.24284	3.30614
143.63157	12.36000	      -0.24283	3.30595
143.73164	12.37000	      -0.24312	3.30577
143.83169	12.38000	      -0.24297	3.30559
143.93180	12.39000	      -0.24329	3.30541
144.03192	12.40000	      -0.24317	3.30522
144.13194	12.41000	      -0.24329	3.30504
144.23200	12.42000	      -0.24335	3.30486
144.33198	12.43000	      -0.24317	3.30468
144.43192	12.44000	      -0.24308	3.30449
144.53190	12.45000	      -0.24302	3.30431
144.63190	12.46000	      -0.24284	3.30412
144.73185	12.47000	      -0.24275	3.30394
144.83179	12.48000	      -0.24246	3.30376
144.93171	12.49000	      -0.24231	3.30357
145.03169	12.50000	      -0.24237	3.30339
145.13162	12.51000	      -0.24233	3.30320
145.23156	12.52000	      -0.24230	3.30302
145.33159	12.53000	      -0.24179	3.30284
145.43159	12.54000	      -0.24182	3.30265
145.53153	12.55000	      -0.24164	3.30247
145.63153	12.56000	      -0.24154	3.30228
145.73149	12.57000	      -0.24127	3.30209
145.83144	12.58000	      -0.24112	3.30191
145.93138	12.59000	      -0.24094	3.30172
146.03136	12.60000	      -0.24088	3.30154
146.13121	12.61000	      -0.24064	3.30135
146.23107	12.62000	      -0.24037	3.30117
146.33098	12.63000	      -0.24019	3.30098
146.43095	12.64000	      -0.23981	3.30079
146.53092	12.65000	      -0.23957	3.30061
146.63085	12.66000	      -0.23940	3.30042
146.73077	12.67000	      -0.23916	3.30023
146.83067	12.68000	      -0.23892	3.30005
146.93062	12.69000	      -0.23851	3.29986
147.03061	12.70000	      -0.23818	3.29967
147.13061	12.71000	      -0.23783	3.29948
147.23054	12.72000	      -0.23784	3.29929
147.33056	12.73000	      -0.23775	3.29911
147.43054	12.74000	      -0.23755	3.29892
147.53053	12.75000	      -0.23723	3.29873
147.63051	12.76000	      -0.23685	3.29854
147.73051	12.77000	      -0.23665	3.29835
147.83049	12.78000	      -0.23639	3.29816
147.93048	12.79000	      -0.23604	3.29797
148.03046	12.80000	      -0.23574	3.29778
148.13052	12.81000	      -0.23547	3.29759
148.23062	12.82000	      -0.23550	3.29740
148.33064	12.83000	      -0.23550	3.29722
148.43075	12.84000	      -0.23544	3.29702
148.53080	12.85000	      -0.23520	3.29683
148.63087	12.86000	      -0.23494	3.29664
148.73095	12.87000	      -0.23467	3.29645
148.83108	12.88000	      -0.23446	3.29626
148.93116	12.89000	      -0.23422	3.29607
149.03117	12.90000	      -0.23390	3.29588
149.13126	12.91000	      -0.23352	3.29569
149.23121	12.92000	      -0.23319	3.29550
149.33129	12.93000	      -0.23284	3.29531
149.43146	12.94000	      -0.23255	3.29511
149.53169	12.95000	      -0.23271	3.29492
149.63174	12.96000	      -0.23259	3.29473
149.73171	12.97000	      -0.23233	3.29454
149.83182	12.98000	      -0.23198	3.29435
149.93140	12.99000	      -0.23166	3.29415

