#EXPORTTYPE:                 	DATA SINGLE                            
#FILE:                       	SK_Mix_resin_entalp10kpm_20-150.ngb-sdg
#FORMAT:                     	NETZSCH5                               
#FTYPE:                      	ASCII                                  
#IDENTITY:                   	1                                      
#DECIMAL:                    	POINT                                  
#SEPARATOR:                  	TAB                                    
#MTYPE:                      	DSC                                    
#INSTRUMENT:                 	NETZSCH DSC 214                        
#PROJECT:                    	?ø?†??-Ø                             
#DATE/TIME:                  	12.09.2019 20:12:26 (UTC+3)            
#CORR. FILE:                 	                                       
#TEMPCAL:                    	applied                                
#SENSITIVITY:                	applied                                
#LABORATORY:                 	CISIS                                  
#OPERATOR:                   	Nasonov                                
#REMARK:                     	                                       
#SAMPLE:                     	20190907_1083-G290S -0-                
#SAMPLE MASS /mg:            	6.8                                    
#MATERIAL:                   	                                       
#REFERENCE:                  	                                       
#REFERENCE MASS /mg:         	0                                      
#TYPE OF CRUCIBLE:           	Concavus Pan Al, pierced lid           
#SAMPLE CRUCIBLE MASS /mg:   	0                                      
#REFERENCE CRUCIBLE MASS /mg:	0                                      
#M.RANGE /ßV:                	5000                                   
#TAU-R:                      	---                                    
#CORR. CODE:                 	009                                    
#EXO:                        	+1                                     
#RANGE:                      	20ËC/10.0(K/min)/250ËC                 
#SEGMENT:                    	S1/1                                   
#SEG. 1:                     	20ËC/10.0(K/min)/250ËC                 

##Temp./ËC	Time/min	DSC/(mW/mg)	Sensit./(uV/mW)
 20.04200	 0.00000	 3.906300e-002	3.36736
 20.04257	 0.01000	 3.926298e-002	3.36736
 20.04262	 0.02000	 3.962950e-002	3.36736
 20.05011	 0.03000	 3.966288e-002	3.36737
 20.07088	 0.04000	 3.883601e-002	3.36739
 20.10658	 0.05000	 3.498080e-002	3.36743
 20.15692	 0.06000	 2.713596e-002	3.36748
 20.22086	 0.07000	 1.496760e-002	3.36754
 20.29745	 0.08000	-9.256246e-004	3.36762
 20.38544	 0.09000	-2.054126e-002	3.36771
 20.48348	 0.10000	-4.248241e-002	3.36782
 20.56018	 0.11000	-6.602029e-002	3.36789
 20.64413	 0.12000	-9.145035e-002	3.36798
 20.73562	 0.13000	      -0.11734	3.36807
 20.83457	 0.14000	      -0.14396	3.36818
 20.94066	 0.15000	      -0.17063	3.36828
 21.05341	 0.16000	      -0.19744	3.36840
 21.17215	 0.17000	      -0.22366	3.36852
 21.29626	 0.18000	      -0.24862	3.36864
 21.42513	 0.19000	      -0.27247	3.36877
 21.55800	 0.20000	      -0.29535	3.36891
 21.69433	 0.21000	      -0.31732	3.36904
 21.83343	 0.22000	      -0.33727	3.36918
 21.97484	 0.23000	      -0.35627	3.36932
 22.11797	 0.24000	      -0.37330	3.36946
 22.26221	 0.25000	      -0.38880	3.36960
 22.40713	 0.26000	      -0.40216	3.36975
 22.55225	 0.27000	      -0.41442	3.36989
 22.69703	 0.28000	      -0.42458	3.37003
 22.84123	 0.29000	      -0.43325	3.37017
 22.98433	 0.30000	      -0.44005	3.37031
 23.12600	 0.31000	      -0.44543	3.37044
 23.26602	 0.32000	      -0.44916	3.37058
 23.40420	 0.33000	      -0.45139	3.37071
 23.54028	 0.34000	      -0.45232	3.37084
 23.67397	 0.35000	      -0.45193	3.37096
 23.80531	 0.36000	      -0.45043	3.37109
 23.93398	 0.37000	      -0.44755	3.37121
 24.06000	 0.38000	      -0.44372	3.37132
 24.18333	 0.39000	      -0.43935	3.37144
 24.30387	 0.40000	      -0.43386	3.37155
 24.42169	 0.41000	      -0.42800	3.37166
 24.53687	 0.42000	      -0.42145	3.37177
 24.64943	 0.43000	      -0.41453	3.37187
 24.75931	 0.44000	      -0.40695	3.37197
 24.86684	 0.45000	      -0.39920	3.37207
 24.97195	 0.46000	      -0.39153	3.37216
 25.07487	 0.47000	      -0.38372	3.37226
 25.17564	 0.48000	      -0.37631	3.37235
 25.27434	 0.49000	      -0.36855	3.37244
 25.37130	 0.50000	      -0.36065	3.37252
 25.46648	 0.51000	      -0.35328	3.37261
 25.56020	 0.52000	      -0.34595	3.37269
 25.65254	 0.53000	      -0.33889	3.37277
 25.74354	 0.54000	      -0.33266	3.37285
 25.83354	 0.55000	      -0.32616	3.37293
 25.92261	 0.56000	      -0.32043	3.37301
 26.01093	 0.57000	      -0.31536	3.37309
 26.09869	 0.58000	      -0.31034	3.37317
 26.18590	 0.59000	      -0.30575	3.37324
 26.27277	 0.60000	      -0.30150	3.37332
 26.35936	 0.61000	      -0.29775	3.37340
 26.44577	 0.62000	      -0.29459	3.37347
 26.53225	 0.63000	      -0.29190	3.37355
 26.61880	 0.64000	      -0.28955	3.37362
 26.70556	 0.65000	      -0.28766	3.37369
 26.79251	 0.66000	      -0.28646	3.37377
 26.87979	 0.67000	      -0.28537	3.37384
 26.96748	 0.68000	      -0.28471	3.37392
 27.05570	 0.69000	      -0.28395	3.37399
 27.14439	 0.70000	      -0.28366	3.37407
 27.23369	 0.71000	      -0.28367	3.37414
 27.32346	 0.72000	      -0.28395	3.37422
 27.41377	 0.73000	      -0.28492	3.37430
 27.50469	 0.74000	      -0.28616	3.37437
 27.59623	 0.75000	      -0.28720	3.37445
 27.68834	 0.76000	      -0.28847	3.37453
 27.78105	 0.77000	      -0.28981	3.37460
 27.87438	 0.78000	      -0.29154	3.37468
 27.96833	 0.79000	      -0.29327	3.37476
 28.06284	 0.80000	      -0.29508	3.37484
 28.15795	 0.81000	      -0.29694	3.37491
 28.25374	 0.82000	      -0.29890	3.37499
 28.34998	 0.83000	      -0.30079	3.37507
 28.44677	 0.84000	      -0.30278	3.37515
 28.54398	 0.85000	      -0.30470	3.37523
 28.64162	 0.86000	      -0.30672	3.37531
 28.73970	 0.87000	      -0.30881	3.37539
 28.83813	 0.88000	      -0.31077	3.37547
 28.93693	 0.89000	      -0.31259	3.37555
 29.03603	 0.90000	      -0.31446	3.37562
 29.13546	 0.91000	      -0.31609	3.37570
 29.23503	 0.92000	      -0.31729	3.37578
 29.33485	 0.93000	      -0.31875	3.37586
 29.43490	 0.94000	      -0.32035	3.37594
 29.53513	 0.95000	      -0.32168	3.37602
 29.63551	 0.96000	      -0.32271	3.37610
 29.73610	 0.97000	      -0.32354	3.37618
 29.83675	 0.98000	      -0.32454	3.37625
 29.93744	 0.99000	      -0.32544	3.37633
 30.03821	 1.00000	      -0.32638	3.37641
 30.13898	 1.01000	      -0.32756	3.37649
 30.23967	 1.02000	      -0.32789	3.37656
 30.34034	 1.03000	      -0.32824	3.37664
 30.44098	 1.04000	      -0.32879	3.37672
 30.54159	 1.05000	      -0.32945	3.37679
 30.64218	 1.06000	      -0.32970	3.37687
 30.74269	 1.07000	      -0.33005	3.37694
 30.84323	 1.08000	      -0.33041	3.37702
 30.94362	 1.09000	      -0.33050	3.37709
 31.04390	 1.10000	      -0.33065	3.37717
 31.14411	 1.11000	      -0.33074	3.37724
 31.24431	 1.12000	      -0.33062	3.37732
 31.34451	 1.13000	      -0.33064	3.37739
 31.44470	 1.14000	      -0.33063	3.37746
 31.54482	 1.15000	      -0.33051	3.37754
 31.64482	 1.16000	      -0.33070	3.37761
 31.74462	 1.17000	      -0.33065	3.37768
 31.84428	 1.18000	      -0.33080	3.37775
 31.94393	 1.19000	      -0.33055	3.37783
 32.04354	 1.20000	      -0.33041	3.37790
 32.14311	 1.21000	      -0.33046	3.37797
 32.24267	 1.22000	      -0.33031	3.37804
 32.34221	 1.23000	      -0.33023	3.37811
 32.44170	 1.24000	      -0.33019	3.37818
 32.54115	 1.25000	      -0.33004	3.37825
 32.64048	 1.26000	      -0.33003	3.37832
 32.73989	 1.27000	      -0.32991	3.37839
 32.83916	 1.28000	      -0.32987	3.37846
 32.93843	 1.29000	      -0.32982	3.37853
 33.03766	 1.30000	      -0.32986	3.37860
 33.13682	 1.31000	      -0.32993	3.37866
 33.23605	 1.32000	      -0.33002	3.37873
 33.33520	 1.33000	      -0.32999	3.37880
 33.43428	 1.34000	      -0.32975	3.37887
 33.53341	 1.35000	      -0.32975	3.37893
 33.63252	 1.36000	      -0.32984	3.37900
 33.73169	 1.37000	      -0.32997	3.37907
 33.83095	 1.38000	      -0.33017	3.37913
 33.93023	 1.39000	      -0.33010	3.37920
 34.02957	 1.40000	      -0.33008	3.37926
 34.12895	 1.41000	      -0.33018	3.37933
 34.22839	 1.42000	      -0.33030	3.37940
 34.32785	 1.43000	      -0.33033	3.37946
 34.42728	 1.44000	      -0.33062	3.37953
 34.52670	 1.45000	      -0.33085	3.37959
 34.62618	 1.46000	      -0.33104	3.37965
 34.72574	 1.47000	      -0.33136	3.37972
 34.82531	 1.48000	      -0.33142	3.37978
 34.92490	 1.49000	      -0.33171	3.37985
 35.02457	 1.50000	      -0.33199	3.37991
 35.12434	 1.51000	      -0.33233	3.37997
 35.22411	 1.52000	      -0.33253	3.38004
 35.32400	 1.53000	      -0.33266	3.38010
 35.42387	 1.54000	      -0.33300	3.38016
 35.52379	 1.55000	      -0.33294	3.38022
 35.62375	 1.56000	      -0.33314	3.38028
 35.72374	 1.57000	      -0.33331	3.38035
 35.82370	 1.58000	      -0.33354	3.38041
 35.92374	 1.59000	      -0.33381	3.38047
 36.02370	 1.60000	      -0.33412	3.38053
 36.12367	 1.61000	      -0.33442	3.38059
 36.22357	 1.62000	      -0.33469	3.38065
 36.32349	 1.63000	      -0.33499	3.38071
 36.42344	 1.64000	      -0.33529	3.38077
 36.52352	 1.65000	      -0.33562	3.38083
 36.62357	 1.66000	      -0.33588	3.38089
 36.72357	 1.67000	      -0.33595	3.38095
 36.82351	 1.68000	      -0.33612	3.38101
 36.92354	 1.69000	      -0.33632	3.38107
 37.02361	 1.70000	      -0.33655	3.38112
 37.12362	 1.71000	      -0.33679	3.38118
 37.22359	 1.72000	      -0.33717	3.38124
 37.32356	 1.73000	      -0.33731	3.38130
 37.42354	 1.74000	      -0.33742	3.38136
 37.52349	 1.75000	      -0.33757	3.38141
 37.62343	 1.76000	      -0.33768	3.38147
 37.72333	 1.77000	      -0.33792	3.38152
 37.82326	 1.78000	      -0.33820	3.38158
 37.92315	 1.79000	      -0.33837	3.38164
 38.02303	 1.80000	      -0.33859	3.38169
 38.12290	 1.81000	      -0.33889	3.38175
 38.22282	 1.82000	      -0.33917	3.38180
 38.32267	 1.83000	      -0.33937	3.38186
 38.42259	 1.84000	      -0.33954	3.38191
 38.52252	 1.85000	      -0.33962	3.38197
 38.62241	 1.86000	      -0.34025	3.38202
 38.72238	 1.87000	      -0.34046	3.38207
 38.82243	 1.88000	      -0.34063	3.38213
 38.92243	 1.89000	      -0.34094	3.38218
 39.02246	 1.90000	      -0.34108	3.38223
 39.12249	 1.91000	      -0.34122	3.38229
 39.22252	 1.92000	      -0.34135	3.38234
 39.32251	 1.93000	      -0.34155	3.38239
 39.42254	 1.94000	      -0.34185	3.38244
 39.52257	 1.95000	      -0.34214	3.38249
 39.62264	 1.96000	      -0.34208	3.38255
 39.72270	 1.97000	      -0.34244	3.38260
 39.82277	 1.98000	      -0.34267	3.38265
 39.92290	 1.99000	      -0.34287	3.38270
 40.02302	 2.00000	      -0.34317	3.38275
 40.12313	 2.01000	      -0.34313	3.38280
 40.22321	 2.02000	      -0.34343	3.38285
 40.32328	 2.03000	      -0.34345	3.38290
 40.42338	 2.04000	      -0.34358	3.38295
 40.52349	 2.05000	      -0.34361	3.38300
 40.62359	 2.06000	      -0.34374	3.38304
 40.72366	 2.07000	      -0.34400	3.38309
 40.82366	 2.08000	      -0.34413	3.38314
 40.92367	 2.09000	      -0.34419	3.38319
 41.02364	 2.10000	      -0.34430	3.38324
 41.12361	 2.11000	      -0.34453	3.38328
 41.22357	 2.12000	      -0.34472	3.38333
 41.32352	 2.13000	      -0.34492	3.38338
 41.42351	 2.14000	      -0.34518	3.38342
 41.52352	 2.15000	      -0.34534	3.38347
 41.62348	 2.16000	      -0.34560	3.38352
 41.72348	 2.17000	      -0.34570	3.38356
 41.82348	 2.18000	      -0.34593	3.38361
 41.92349	 2.19000	      -0.34612	3.38365
 42.02354	 2.20000	      -0.34625	3.38370
 42.12349	 2.21000	      -0.34643	3.38374
 42.22338	 2.22000	      -0.34679	3.38379
 42.32334	 2.23000	      -0.34717	3.38383
 42.42339	 2.24000	      -0.34722	3.38388
 42.52339	 2.25000	      -0.34754	3.38392
 42.62346	 2.26000	      -0.34773	3.38396
 42.72349	 2.27000	      -0.34791	3.38401
 42.82361	 2.28000	      -0.34810	3.38405
 42.92364	 2.29000	      -0.34838	3.38409
 43.02370	 2.30000	      -0.34864	3.38413
 43.12379	 2.31000	      -0.34886	3.38418
 43.22392	 2.32000	      -0.34912	3.38422
 43.32405	 2.33000	      -0.34917	3.38426
 43.42423	 2.34000	      -0.34953	3.38430
 43.52433	 2.35000	      -0.34988	3.38434
 43.62443	 2.36000	      -0.35024	3.38438
 43.72452	 2.37000	      -0.35049	3.38442
 43.82461	 2.38000	      -0.35075	3.38446
 43.92464	 2.39000	      -0.35110	3.38450
 44.02466	 2.40000	      -0.35127	3.38454
 44.12467	 2.41000	      -0.35147	3.38458
 44.22477	 2.42000	      -0.35161	3.38462
 44.32490	 2.43000	      -0.35174	3.38466
 44.42493	 2.44000	      -0.35191	3.38470
 44.52502	 2.45000	      -0.35184	3.38474
 44.62507	 2.46000	      -0.35197	3.38477
 44.72523	 2.47000	      -0.35234	3.38481
 44.82536	 2.48000	      -0.35261	3.38485
 44.92549	 2.49000	      -0.35277	3.38489
 45.02566	 2.50000	      -0.35304	3.38492
 45.12572	 2.51000	      -0.35333	3.38496
 45.22577	 2.52000	      -0.35322	3.38500
 45.32579	 2.53000	      -0.35341	3.38503
 45.42575	 2.54000	      -0.35341	3.38507
 45.52570	 2.55000	      -0.35350	3.38511
 45.62566	 2.56000	      -0.35392	3.38514
 45.72562	 2.57000	      -0.35428	3.38518
 45.82561	 2.58000	      -0.35444	3.38521
 45.92554	 2.59000	      -0.35463	3.38525
 46.02551	 2.60000	      -0.35462	3.38528
 46.12551	 2.61000	      -0.35467	3.38531
 46.22551	 2.62000	      -0.35485	3.38535
 46.32551	 2.63000	      -0.35500	3.38538
 46.42551	 2.64000	      -0.35515	3.38542
 46.52546	 2.65000	      -0.35530	3.38545
 46.62541	 2.66000	      -0.35575	3.38548
 46.72526	 2.67000	      -0.35580	3.38551
 46.82503	 2.68000	      -0.35595	3.38555
 46.92484	 2.69000	      -0.35614	3.38558
 47.02464	 2.70000	      -0.35630	3.38561
 47.12448	 2.71000	      -0.35647	3.38564
 47.22439	 2.72000	      -0.35678	3.38567
 47.32431	 2.73000	      -0.35699	3.38570
 47.42426	 2.74000	      -0.35733	3.38573
 47.52421	 2.75000	      -0.35754	3.38576
 47.62416	 2.76000	      -0.35792	3.38580
 47.72408	 2.77000	      -0.35807	3.38583
 47.82402	 2.78000	      -0.35818	3.38585
 47.92395	 2.79000	      -0.35832	3.38588
 48.02385	 2.80000	      -0.35849	3.38591
 48.12380	 2.81000	      -0.35872	3.38594
 48.22380	 2.82000	      -0.35884	3.38597
 48.32374	 2.83000	      -0.35900	3.38600
 48.42369	 2.84000	      -0.35929	3.38603
 48.52369	 2.85000	      -0.35939	3.38606
 48.62364	 2.86000	      -0.35955	3.38608
 48.72364	 2.87000	      -0.35961	3.38611
 48.82364	 2.88000	      -0.35964	3.38614
 48.92367	 2.89000	      -0.36019	3.38616
 49.02380	 2.90000	      -0.36072	3.38619
 49.12389	 2.91000	      -0.36072	3.38622
 49.22397	 2.92000	      -0.36078	3.38624
 49.32397	 2.93000	      -0.36097	3.38627
 49.42398	 2.94000	      -0.36142	3.38629
 49.52398	 2.95000	      -0.36171	3.38632
 49.62400	 2.96000	      -0.36217	3.38634
 49.72415	 2.97000	      -0.36253	3.38637
 49.82423	 2.98000	      -0.36269	3.38639
 49.92444	 2.99000	      -0.36294	3.38642
 50.02461	 3.00000	      -0.36313	3.38644
 50.12470	 3.01000	      -0.36335	3.38647
 50.22479	 3.02000	      -0.36388	3.38649
 50.32492	 3.03000	      -0.36401	3.38651
 50.42508	 3.04000	      -0.36417	3.38654
 50.52520	 3.05000	      -0.36433	3.38656
 50.62523	 3.06000	      -0.36445	3.38658
 50.72526	 3.07000	      -0.36454	3.38660
 50.82533	 3.08000	      -0.36474	3.38663
 50.92549	 3.09000	      -0.36493	3.38665
 51.02554	 3.10000	      -0.36517	3.38667
 51.12561	 3.11000	      -0.36521	3.38669
 51.22566	 3.12000	      -0.36541	3.38671
 51.32574	 3.13000	      -0.36568	3.38673
 51.42582	 3.14000	      -0.36595	3.38675
 51.52597	 3.15000	      -0.36629	3.38677
 51.62611	 3.16000	      -0.36656	3.38679
 51.72616	 3.17000	      -0.36677	3.38681
 51.82618	 3.18000	      -0.36707	3.38683
 51.92613	 3.19000	      -0.36711	3.38685
 52.02613	 3.20000	      -0.36721	3.38687
 52.12620	 3.21000	      -0.36735	3.38689
 52.22623	 3.22000	      -0.36742	3.38690
 52.32626	 3.23000	      -0.36756	3.38692
 52.42628	 3.24000	      -0.36786	3.38694
 52.52634	 3.25000	      -0.36810	3.38696
 52.62638	 3.26000	      -0.36844	3.38697
 52.72643	 3.27000	      -0.36871	3.38699
 52.82643	 3.28000	      -0.36892	3.38701
 52.92639	 3.29000	      -0.36909	3.38703
 53.02630	 3.30000	      -0.36902	3.38704
 53.12626	 3.31000	      -0.36938	3.38706
 53.22625	 3.32000	      -0.36964	3.38707
 53.32628	 3.33000	      -0.36990	3.38709
 53.42628	 3.34000	      -0.37009	3.38710
 53.52626	 3.35000	      -0.37015	3.38712
 53.62626	 3.36000	      -0.37018	3.38713
 53.72625	 3.37000	      -0.37037	3.38715
 53.82623	 3.38000	      -0.37056	3.38716
 53.92620	 3.39000	      -0.37082	3.38718
 54.02629	 3.40000	      -0.37105	3.38719
 54.12631	 3.41000	      -0.37145	3.38720
 54.22634	 3.42000	      -0.37158	3.38722
 54.32638	 3.43000	      -0.37171	3.38723
 54.42639	 3.44000	      -0.37175	3.38724
 54.52639	 3.45000	      -0.37201	3.38725
 54.62644	 3.46000	      -0.37235	3.38727
 54.72649	 3.47000	      -0.37265	3.38728
 54.82662	 3.48000	      -0.37285	3.38729
 54.92670	 3.49000	      -0.37305	3.38730
 55.02684	 3.50000	      -0.37317	3.38731
 55.12692	 3.51000	      -0.37329	3.38732
 55.22695	 3.52000	      -0.37337	3.38733
 55.32698	 3.53000	      -0.37361	3.38734
 55.42703	 3.54000	      -0.37376	3.38735
 55.52710	 3.55000	      -0.37377	3.38736
 55.62723	 3.56000	      -0.37379	3.38737
 55.72733	 3.57000	      -0.37413	3.38738
 55.82739	 3.58000	      -0.37431	3.38739
 55.92749	 3.59000	      -0.37452	3.38740
 56.02744	 3.60000	      -0.37462	3.38741
 56.12743	 3.61000	      -0.37488	3.38742
 56.22743	 3.62000	      -0.37522	3.38742
 56.32736	 3.63000	      -0.37542	3.38743
 56.42738	 3.64000	      -0.37561	3.38744
 56.52739	 3.65000	      -0.37578	3.38745
 56.62743	 3.66000	      -0.37591	3.38745
 56.72746	 3.67000	      -0.37602	3.38746
 56.82748	 3.68000	      -0.37628	3.38747
 56.92752	 3.69000	      -0.37638	3.38747
 57.02748	 3.70000	      -0.37647	3.38748
 57.12743	 3.71000	      -0.37666	3.38748
 57.22744	 3.72000	      -0.37701	3.38749
 57.32741	 3.73000	      -0.37726	3.38750
 57.42736	 3.74000	      -0.37748	3.38750
 57.52725	 3.75000	      -0.37767	3.38750
 57.62715	 3.76000	      -0.37805	3.38751
 57.72705	 3.77000	      -0.37824	3.38751
 57.82697	 3.78000	      -0.37829	3.38752
 57.92687	 3.79000	      -0.37834	3.38752
 58.02684	 3.80000	      -0.37840	3.38752
 58.12682	 3.81000	      -0.37851	3.38753
 58.22677	 3.82000	      -0.37866	3.38753
 58.32679	 3.83000	      -0.37870	3.38753
 58.42674	 3.84000	      -0.37865	3.38754
 58.52669	 3.85000	      -0.37906	3.38754
 58.62659	 3.86000	      -0.37938	3.38754
 58.72648	 3.87000	      -0.37965	3.38754
 58.82636	 3.88000	      -0.37974	3.38754
 58.92626	 3.89000	      -0.38005	3.38754
 59.02618	 3.90000	      -0.38017	3.38754
 59.12616	 3.91000	      -0.38020	3.38755
 59.22618	 3.92000	      -0.38063	3.38755
 59.32621	 3.93000	      -0.38076	3.38755
 59.42628	 3.94000	      -0.38076	3.38755
 59.52639	 3.95000	      -0.38098	3.38754
 59.62641	 3.96000	      -0.38125	3.38754
 59.72633	 3.97000	      -0.38148	3.38754
 59.82633	 3.98000	      -0.38160	3.38754
 59.92643	 3.99000	      -0.38190	3.38754
 60.02651	 4.00000	      -0.38216	3.38754
 60.12657	 4.01000	      -0.38240	3.38754
 60.22667	 4.02000	      -0.38264	3.38754
 60.32677	 4.03000	      -0.38285	3.38753
 60.42685	 4.04000	      -0.38296	3.38753
 60.52690	 4.05000	      -0.38317	3.38753
 60.62690	 4.06000	      -0.38314	3.38752
 60.72695	 4.07000	      -0.38315	3.38752
 60.82700	 4.08000	      -0.38323	3.38752
 60.92705	 4.09000	      -0.38354	3.38751
 61.02707	 4.10000	      -0.38385	3.38751
 61.12715	 4.11000	      -0.38399	3.38750
 61.22720	 4.12000	      -0.38417	3.38750
 61.32718	 4.13000	      -0.38438	3.38749
 61.42720	 4.14000	      -0.38455	3.38749
 61.52720	 4.15000	      -0.38473	3.38748
 61.62721	 4.16000	      -0.38494	3.38748
 61.72726	 4.17000	      -0.38512	3.38747
 61.82733	 4.18000	      -0.38527	3.38747
 61.92738	 4.19000	      -0.38548	3.38746
 62.02739	 4.20000	      -0.38572	3.38745
 62.12734	 4.21000	      -0.38589	3.38745
 62.22736	 4.22000	      -0.38607	3.38744
 62.32731	 4.23000	      -0.38618	3.38743
 62.42733	 4.24000	      -0.38638	3.38742
 62.52734	 4.25000	      -0.38653	3.38741
 62.62733	 4.26000	      -0.38647	3.38741
 62.72743	 4.27000	      -0.38681	3.38740
 62.82752	 4.28000	      -0.38692	3.38739
 62.92764	 4.29000	      -0.38699	3.38738
 63.02775	 4.30000	      -0.38721	3.38737
 63.12782	 4.31000	      -0.38722	3.38736
 63.22779	 4.32000	      -0.38744	3.38735
 63.32777	 4.33000	      -0.38772	3.38734
 63.42780	 4.34000	      -0.38804	3.38733
 63.52782	 4.35000	      -0.38822	3.38732
 63.62784	 4.36000	      -0.38834	3.38731
 63.72789	 4.37000	      -0.38856	3.38730
 63.82800	 4.38000	      -0.38858	3.38729
 63.92805	 4.39000	      -0.38866	3.38728
 64.02805	 4.40000	      -0.38858	3.38726
 64.12808	 4.41000	      -0.38873	3.38725
 64.22813	 4.42000	      -0.38889	3.38724
 64.32816	 4.43000	      -0.38917	3.38723
 64.42821	 4.44000	      -0.38929	3.38722
 64.52821	 4.45000	      -0.38925	3.38720
 64.62829	 4.46000	      -0.38927	3.38719
 64.72836	 4.47000	      -0.38952	3.38718
 64.82834	 4.48000	      -0.38964	3.38716
 64.92829	 4.49000	      -0.38983	3.38715
 65.02826	 4.50000	      -0.38985	3.38713
 65.12818	 4.51000	      -0.39003	3.38712
 65.22808	 4.52000	      -0.39017	3.38710
 65.32803	 4.53000	      -0.39018	3.38709
 65.42800	 4.54000	      -0.39032	3.38707
 65.52795	 4.55000	      -0.39033	3.38706
 65.62795	 4.56000	      -0.39040	3.38704
 65.72790	 4.57000	      -0.39038	3.38703
 65.82780	 4.58000	      -0.39042	3.38701
 65.92779	 4.59000	      -0.39073	3.38699
 66.02772	 4.60000	      -0.39079	3.38698
 66.12772	 4.61000	      -0.39076	3.38696
 66.22777	 4.62000	      -0.39070	3.38694
 66.32777	 4.63000	      -0.39087	3.38693
 66.42784	 4.64000	      -0.39117	3.38691
 66.52803	 4.65000	      -0.39137	3.38689
 66.62813	 4.66000	      -0.39151	3.38687
 66.72821	 4.67000	      -0.39171	3.38685
 66.82825	 4.68000	      -0.39179	3.38683
 66.92831	 4.69000	      -0.39199	3.38682
 67.02836	 4.70000	      -0.39200	3.38680
 67.12848	 4.71000	      -0.39189	3.38678
 67.22862	 4.72000	      -0.39202	3.38676
 67.32875	 4.73000	      -0.39208	3.38674
 67.42887	 4.74000	      -0.39214	3.38672
 67.52884	 4.75000	      -0.39214	3.38670
 67.62887	 4.76000	      -0.39223	3.38668
 67.72890	 4.77000	      -0.39226	3.38665
 67.82898	 4.78000	      -0.39219	3.38663
 67.92910	 4.79000	      -0.39228	3.38661
 68.02916	 4.80000	      -0.39225	3.38659
 68.12931	 4.81000	      -0.39228	3.38657
 68.22931	 4.82000	      -0.39227	3.38655
 68.32926	 4.83000	      -0.39223	3.38652
 68.42918	 4.84000	      -0.39233	3.38650
 68.52890	 4.85000	      -0.39239	3.38648
 68.62864	 4.86000	      -0.39238	3.38646
 68.72841	 4.87000	      -0.39251	3.38643
 68.82816	 4.88000	      -0.39260	3.38641
 68.92800	 4.89000	      -0.39263	3.38638
 69.02782	 4.90000	      -0.39267	3.38636
 69.12767	 4.91000	      -0.39260	3.38634
 69.22757	 4.92000	      -0.39257	3.38631
 69.32743	 4.93000	      -0.39251	3.38629
 69.42730	 4.94000	      -0.39241	3.38626
 69.52726	 4.95000	      -0.39234	3.38624
 69.62725	 4.96000	      -0.39231	3.38621
 69.72721	 4.97000	      -0.39224	3.38618
 69.82713	 4.98000	      -0.39224	3.38616
 69.92702	 4.99000	      -0.39234	3.38613
 70.02692	 5.00000	      -0.39231	3.38611
 70.12680	 5.01000	      -0.39248	3.38608
 70.22672	 5.02000	      -0.39236	3.38605
 70.32666	 5.03000	      -0.39246	3.38602
 70.42672	 5.04000	      -0.39244	3.38600
 70.52675	 5.05000	      -0.39231	3.38597
 70.62692	 5.06000	      -0.39232	3.38594
 70.72708	 5.07000	      -0.39219	3.38591
 70.82734	 5.08000	      -0.39207	3.38588
 70.92751	 5.09000	      -0.39207	3.38585
 71.02771	 5.10000	      -0.39202	3.38583
 71.12785	 5.11000	      -0.39198	3.38580
 71.22787	 5.12000	      -0.39185	3.38577
 71.32798	 5.13000	      -0.39191	3.38574
 71.42816	 5.14000	      -0.39167	3.38571
 71.52838	 5.15000	      -0.39140	3.38568
 71.62852	 5.16000	      -0.39140	3.38565
 71.72856	 5.17000	      -0.39142	3.38562
 71.82867	 5.18000	      -0.39119	3.38558
 71.92875	 5.19000	      -0.39112	3.38555
 72.02884	 5.20000	      -0.39115	3.38552
 72.12897	 5.21000	      -0.39108	3.38549
 72.22902	 5.22000	      -0.39081	3.38546
 72.32913	 5.23000	      -0.39051	3.38543
 72.42921	 5.24000	      -0.39028	3.38539
 72.52930	 5.25000	      -0.39011	3.38536
 72.62930	 5.26000	      -0.39011	3.38533
 72.72925	 5.27000	      -0.38958	3.38529
 72.82916	 5.28000	      -0.38924	3.38526
 72.92913	 5.29000	      -0.38911	3.38523
 73.02900	 5.30000	      -0.38894	3.38519
 73.12893	 5.31000	      -0.38866	3.38516
 73.22892	 5.32000	      -0.38859	3.38512
 73.32885	 5.33000	      -0.38831	3.38509
 73.42875	 5.34000	      -0.38801	3.38505
 73.52857	 5.35000	      -0.38793	3.38502
 73.62844	 5.36000	      -0.38769	3.38498
 73.72834	 5.37000	      -0.38735	3.38495
 73.82826	 5.38000	      -0.38714	3.38491
 73.92823	 5.39000	      -0.38693	3.38488
 74.02825	 5.40000	      -0.38690	3.38484
 74.12820	 5.41000	      -0.38676	3.38480
 74.22811	 5.42000	      -0.38675	3.38477
 74.32810	 5.43000	      -0.38661	3.38473
 74.42798	 5.44000	      -0.38637	3.38469
 74.52787	 5.45000	      -0.38620	3.38466
 74.62785	 5.46000	      -0.38609	3.38462
 74.72780	 5.47000	      -0.38589	3.38458
 74.82775	 5.48000	      -0.38581	3.38454
 74.92770	 5.49000	      -0.38574	3.38450
 75.02775	 5.50000	      -0.38559	3.38446
 75.12787	 5.51000	      -0.38565	3.38442
 75.22787	 5.52000	      -0.38571	3.38439
 75.32792	 5.53000	      -0.38556	3.38435
 75.42797	 5.54000	      -0.38539	3.38431
 75.52808	 5.55000	      -0.38515	3.38427
 75.62812	 5.56000	      -0.38501	3.38423
 75.72816	 5.57000	      -0.38484	3.38418
 75.82830	 5.58000	      -0.38477	3.38414
 75.92826	 5.59000	      -0.38479	3.38410
 76.02830	 5.60000	      -0.38467	3.38406
 76.12828	 5.61000	      -0.38450	3.38402
 76.22836	 5.62000	      -0.38443	3.38398
 76.32843	 5.63000	      -0.38425	3.38394
 76.42854	 5.64000	      -0.38395	3.38389
 76.52869	 5.65000	      -0.38377	3.38385
 76.62877	 5.66000	      -0.38370	3.38381
 76.72897	 5.67000	      -0.38339	3.38377
 76.82910	 5.68000	      -0.38322	3.38372
 76.92920	 5.69000	      -0.38308	3.38368
 77.02931	 5.70000	      -0.38271	3.38364
 77.12934	 5.71000	      -0.38247	3.38359
 77.22944	 5.72000	      -0.38207	3.38355
 77.32956	 5.73000	      -0.38176	3.38350
 77.42959	 5.74000	      -0.38138	3.38346
 77.52962	 5.75000	      -0.38131	3.38341
 77.62966	 5.76000	      -0.38120	3.38337
 77.72974	 5.77000	      -0.38092	3.38332
 77.82975	 5.78000	      -0.38052	3.38328
 77.92974	 5.79000	      -0.38024	3.38323
 78.02966	 5.80000	      -0.37988	3.38319
 78.12957	 5.81000	      -0.37952	3.38314
 78.22951	 5.82000	      -0.37917	3.38309
 78.32936	 5.83000	      -0.37872	3.38305
 78.42928	 5.84000	      -0.37807	3.38300
 78.52918	 5.85000	      -0.37759	3.38295
 78.62905	 5.86000	      -0.37717	3.38291
 78.72893	 5.87000	      -0.37652	3.38286
 78.82880	 5.88000	      -0.37584	3.38281
 78.92867	 5.89000	      -0.37519	3.38276
 79.02856	 5.90000	      -0.37452	3.38271
 79.12846	 5.91000	      -0.37389	3.38267
 79.22838	 5.92000	      -0.37366	3.38262
 79.32828	 5.93000	      -0.37319	3.38257
 79.42818	 5.94000	      -0.37246	3.38252
 79.52811	 5.95000	      -0.37172	3.38247
 79.62808	 5.96000	      -0.37102	3.38242
 79.72808	 5.97000	      -0.37026	3.38237
 79.82805	 5.98000	      -0.36913	3.38232
 79.92811	 5.99000	      -0.36823	3.38227
 80.02818	 6.00000	      -0.36738	3.38222
 80.12831	 6.01000	      -0.36656	3.38217
 80.22838	 6.02000	      -0.36570	3.38212
 80.32851	 6.03000	      -0.36485	3.38206
 80.42862	 6.04000	      -0.36373	3.38201
 80.52869	 6.05000	      -0.36281	3.38196
 80.62880	 6.06000	      -0.36199	3.38191
 80.72885	 6.07000	      -0.36101	3.38186
 80.82893	 6.08000	      -0.36009	3.38180
 80.92902	 6.09000	      -0.35913	3.38175
 81.02903	 6.10000	      -0.35792	3.38170
 81.12910	 6.11000	      -0.35657	3.38164
 81.22913	 6.12000	      -0.35532	3.38159
 81.32920	 6.13000	      -0.35401	3.38154
 81.42928	 6.14000	      -0.35273	3.38148
 81.52931	 6.15000	      -0.35138	3.38143
 81.62933	 6.16000	      -0.34994	3.38137
 81.72939	 6.17000	      -0.34833	3.38132
 81.82939	 6.18000	      -0.34695	3.38126
 81.92939	 6.19000	      -0.34563	3.38121
 82.02944	 6.20000	      -0.34425	3.38115
 82.12956	 6.21000	      -0.34255	3.38110
 82.22966	 6.22000	      -0.34102	3.38104
 82.32972	 6.23000	      -0.33953	3.38098
 82.42984	 6.24000	      -0.33770	3.38093
 82.52993	 6.25000	      -0.33614	3.38087
 82.62993	 6.26000	      -0.33441	3.38081
 82.73002	 6.27000	      -0.33255	3.38076
 82.83007	 6.28000	      -0.33079	3.38070
 82.93016	 6.29000	      -0.32896	3.38064
 83.03023	 6.30000	      -0.32712	3.38058
 83.13030	 6.31000	      -0.32528	3.38053
 83.23030	 6.32000	      -0.32340	3.38047
 83.33025	 6.33000	      -0.32113	3.38041
 83.43020	 6.34000	      -0.31892	3.38035
 83.53018	 6.35000	      -0.31684	3.38029
 83.63025	 6.36000	      -0.31457	3.38023
 83.73018	 6.37000	      -0.31229	3.38017
 83.83010	 6.38000	      -0.31015	3.38011
 83.93003	 6.39000	      -0.30790	3.38005
 84.02998	 6.40000	      -0.30570	3.37999
 84.12992	 6.41000	      -0.30345	3.37993
 84.22980	 6.42000	      -0.30080	3.37987
 84.32977	 6.43000	      -0.29829	3.37981
 84.42969	 6.44000	      -0.29603	3.37975
 84.52956	 6.45000	      -0.29325	3.37969
 84.62946	 6.46000	      -0.29053	3.37963
 84.72936	 6.47000	      -0.28822	3.37956
 84.82926	 6.48000	      -0.28563	3.37950
 84.92915	 6.49000	      -0.28279	3.37944
 85.02907	 6.50000	      -0.27976	3.37938
 85.12895	 6.51000	      -0.27695	3.37932
 85.22890	 6.52000	      -0.27421	3.37925
 85.32890	 6.53000	      -0.27130	3.37919
 85.42893	 6.54000	      -0.26833	3.37913
 85.52892	 6.55000	      -0.26526	3.37906
 85.62889	 6.56000	      -0.26215	3.37900
 85.72892	 6.57000	      -0.25898	3.37893
 85.82898	 6.58000	      -0.25583	3.37887
 85.92908	 6.59000	      -0.25263	3.37881
 86.02910	 6.60000	      -0.24926	3.37874
 86.12907	 6.61000	      -0.24566	3.37868
 86.22902	 6.62000	      -0.24202	3.37861
 86.32889	 6.63000	      -0.23849	3.37854
 86.42882	 6.64000	      -0.23485	3.37848
 86.52885	 6.65000	      -0.23112	3.37841
 86.62890	 6.66000	      -0.22739	3.37835
 86.72893	 6.67000	      -0.22362	3.37828
 86.82897	 6.68000	      -0.21965	3.37821
 86.92900	 6.69000	      -0.21572	3.37815
 87.02908	 6.70000	      -0.21166	3.37808
 87.12916	 6.71000	      -0.20758	3.37801
 87.22920	 6.72000	      -0.20336	3.37794
 87.32925	 6.73000	      -0.19895	3.37788
 87.42926	 6.74000	      -0.19437	3.37781
 87.52925	 6.75000	      -0.18992	3.37774
 87.62926	 6.76000	      -0.18547	3.37767
 87.72930	 6.77000	      -0.18093	3.37760
 87.82933	 6.78000	      -0.17631	3.37753
 87.92933	 6.79000	      -0.17147	3.37746
 88.02936	 6.80000	      -0.16598	3.37739
 88.12944	 6.81000	      -0.16108	3.37733
 88.22957	 6.82000	      -0.15577	3.37726
 88.32966	 6.83000	      -0.15060	3.37718
 88.42975	 6.84000	      -0.14563	3.37711
 88.52982	 6.85000	      -0.13993	3.37704
 88.62979	 6.86000	      -0.13426	3.37697
 88.72984	 6.87000	      -0.12868	3.37690
 88.82993	 6.88000	      -0.12288	3.37683
 88.93000	 6.89000	      -0.11698	3.37676
 89.03000	 6.90000	      -0.11088	3.37669
 89.13002	 6.91000	      -0.10471	3.37661
 89.23003	 6.92000	-9.813453e-002	3.37654
 89.33005	 6.93000	-9.159342e-002	3.37647
 89.43005	 6.94000	-8.488586e-002	3.37640
 89.53013	 6.95000	-7.804469e-002	3.37632
 89.63020	 6.96000	-7.107160e-002	3.37625
 89.73015	 6.97000	-6.379737e-002	3.37618
 89.83002	 6.98000	-5.655691e-002	3.37610
 89.92998	 6.99000	-4.931703e-002	3.37603
 90.02995	 7.00000	-4.111340e-002	3.37596
 90.12998	 7.01000	-3.331257e-002	3.37588
 90.23002	 7.02000	-2.567758e-002	3.37581
 90.33007	 7.03000	-1.774313e-002	3.37573
 90.43007	 7.04000	-8.910920e-003	3.37566
 90.53015	 7.05000	-4.771845e-004	3.37558
 90.63018	 7.06000	 8.355365e-003	3.37551
 90.73034	 7.07000	 1.715505e-002	3.37543
 90.83046	 7.08000	 2.645417e-002	3.37536
 90.93056	 7.09000	 3.598727e-002	3.37528
 91.03077	 7.10000	 4.615966e-002	3.37520
 91.13089	 7.11000	 5.621650e-002	3.37513
 91.23103	 7.12000	 6.650695e-002	3.37505
 91.33121	 7.13000	 7.736215e-002	3.37497
 91.43133	 7.14000	 8.805162e-002	3.37490
 91.53141	 7.15000	 9.924113e-002	3.37482
 91.63154	 7.16000	       0.11070	3.37474
 91.73172	 7.17000	       0.12265	3.37466
 91.83195	 7.18000	       0.13471	3.37458
 91.93218	 7.19000	       0.14726	3.37451
 92.03229	 7.20000	       0.16009	3.37443
 92.13233	 7.21000	       0.17332	3.37435
 92.23234	 7.22000	       0.18692	3.37427
 92.33233	 7.23000	       0.20092	3.37419
 92.43231	 7.24000	       0.21535	3.37411
 92.53229	 7.25000	       0.23008	3.37403
 92.63228	 7.26000	       0.24527	3.37395
 92.73223	 7.27000	       0.26080	3.37387
 92.83205	 7.28000	       0.27710	3.37379
 92.93190	 7.29000	       0.29353	3.37371
 93.03179	 7.30000	       0.31012	3.37363
 93.13169	 7.31000	       0.32759	3.37355
 93.23164	 7.32000	       0.34546	3.37347
 93.33156	 7.33000	       0.36386	3.37338
 93.43154	 7.34000	       0.38273	3.37330
 93.53154	 7.35000	       0.40203	3.37322
 93.63148	 7.36000	       0.42210	3.37314
 93.73143	 7.37000	       0.44244	3.37306
 93.83136	 7.38000	       0.46337	3.37297
 93.93126	 7.39000	       0.48501	3.37289
 94.03121	 7.40000	       0.50728	3.37281
 94.13116	 7.41000	       0.53002	3.37272
 94.23126	 7.42000	       0.55326	3.37264
 94.33118	 7.43000	       0.57729	3.37256
 94.43116	 7.44000	       0.60210	3.37247
 94.53113	 7.45000	       0.62710	3.37239
 94.63108	 7.46000	       0.65294	3.37230
 94.73100	 7.47000	       0.67988	3.37222
 94.83102	 7.48000	       0.70721	3.37213
 94.93098	 7.49000	       0.73505	3.37205
 95.03098	 7.50000	       0.76365	3.37196
 95.13090	 7.51000	       0.79272	3.37188
 95.23087	 7.52000	       0.82261	3.37179
 95.33089	 7.53000	       0.85337	3.37171
 95.43080	 7.54000	       0.88460	3.37162
 95.53082	 7.55000	       0.91643	3.37153
 95.63084	 7.56000	       0.94896	3.37145
 95.73085	 7.57000	       0.98192	3.37136
 95.83085	 7.58000	       1.01535	3.37127
 95.93089	 7.59000	       1.04952	3.37119
 96.03089	 7.60000	       1.08416	3.37110
 96.13097	 7.61000	       1.11985	3.37101
 96.23095	 7.62000	       1.15537	3.37092
 96.33103	 7.63000	       1.19130	3.37083
 96.43120	 7.64000	       1.22829	3.37075
 96.53133	 7.65000	       1.26499	3.37066
 96.63144	 7.66000	       1.30219	3.37057
 96.73161	 7.67000	       1.34008	3.37048
 96.83172	 7.68000	       1.37762	3.37039
 96.93190	 7.69000	       1.41499	3.37030
 97.03205	 7.70000	       1.45266	3.37021
 97.13213	 7.71000	       1.49036	3.37012
 97.23225	 7.72000	       1.52800	3.37003
 97.33230	 7.73000	       1.56537	3.36994
 97.43231	 7.74000	       1.60235	3.36985
 97.53231	 7.75000	       1.63823	3.36976
 97.63231	 7.76000	       1.67418	3.36967
 97.73239	 7.77000	       1.70914	3.36957
 97.83243	 7.78000	       1.74366	3.36948
 97.93251	 7.79000	       1.77672	3.36939
 98.03259	 7.80000	       1.80907	3.36930
 98.13259	 7.81000	       1.84039	3.36921
 98.23256	 7.82000	       1.87018	3.36911
 98.33246	 7.83000	       1.89871	3.36902
 98.43238	 7.84000	       1.92554	3.36893
 98.53231	 7.85000	       1.95117	3.36884
 98.63221	 7.86000	       1.97461	3.36874
 98.73210	 7.87000	       1.99648	3.36865
 98.83198	 7.88000	       2.01649	3.36856
 98.93180	 7.89000	       2.03450	3.36846
 99.03166	 7.90000	       2.05035	3.36837
 99.13146	 7.91000	       2.06414	3.36827
 99.23129	 7.92000	       2.07570	3.36818
 99.33107	 7.93000	       2.08480	3.36808
 99.43090	 7.94000	       2.09170	3.36799
 99.53075	 7.95000	       2.09634	3.36789
 99.63056	 7.96000	       2.09804	3.36780
 99.73025	 7.97000	       2.09744	3.36770
 99.82995	 7.98000	       2.09438	3.36761
 99.92969	 7.99000	       2.08906	3.36751
100.02944	 8.00000	       2.08130	3.36742
100.12921	 8.01000	       2.07135	3.36732
100.22895	 8.02000	       2.05857	3.36722
100.32875	 8.03000	       2.04358	3.36713
100.42854	 8.04000	       2.02647	3.36703
100.52834	 8.05000	       2.00712	3.36693
100.62821	 8.06000	       1.98567	3.36683
100.72805	 8.07000	       1.96178	3.36674
100.82792	 8.08000	       1.93623	3.36664
100.92780	 8.09000	       1.90888	3.36654
101.02764	 8.10000	       1.87991	3.36644
101.12754	 8.11000	       1.84902	3.36634
101.22739	 8.12000	       1.81665	3.36624
101.32731	 8.13000	       1.78305	3.36614
101.42726	 8.14000	       1.74822	3.36604
101.52708	 8.15000	       1.71221	3.36594
101.62697	 8.16000	       1.67531	3.36585
101.72693	 8.17000	       1.63776	3.36575
101.82690	 8.18000	       1.59935	3.36564
101.92689	 8.19000	       1.56024	3.36554
102.02675	 8.20000	       1.52084	3.36544
102.12659	 8.21000	       1.48097	3.36534
102.22652	 8.22000	       1.44093	3.36524
102.32649	 8.23000	       1.40109	3.36514
102.42646	 8.24000	       1.36131	3.36504
102.52634	 8.25000	       1.32143	3.36494
102.62626	 8.26000	       1.28165	3.36484
102.72621	 8.27000	       1.24220	3.36473
102.82620	 8.28000	       1.20341	3.36463
102.92615	 8.29000	       1.16505	3.36453
103.02608	 8.30000	       1.12720	3.36442
103.12603	 8.31000	       1.09003	3.36432
103.22605	 8.32000	       1.05370	3.36422
103.32603	 8.33000	       1.01770	3.36411
103.42607	 8.34000	       0.98227	3.36401
103.52613	 8.35000	       0.94776	3.36391
103.62615	 8.36000	       0.91442	3.36380
103.72623	 8.37000	       0.88175	3.36370
103.82626	 8.38000	       0.84978	3.36359
103.92631	 8.39000	       0.81880	3.36349
104.02641	 8.40000	       0.78842	3.36338
104.12651	 8.41000	       0.75899	3.36328
104.22662	 8.42000	       0.73069	3.36317
104.32666	 8.43000	       0.70299	3.36307
104.42671	 8.44000	       0.67636	3.36296
104.52684	 8.45000	       0.65029	3.36285
104.62698	 8.46000	       0.62503	3.36275
104.72708	 8.47000	       0.60086	3.36264
104.82718	 8.48000	       0.57712	3.36253
104.92734	 8.49000	       0.55445	3.36243
105.02754	 8.50000	       0.53235	3.36232
105.12769	 8.51000	       0.51102	3.36221
105.22784	 8.52000	       0.49053	3.36210
105.32800	 8.53000	       0.47077	3.36200
105.42815	 8.54000	       0.45170	3.36189
105.52834	 8.55000	       0.43327	3.36178
105.62851	 8.56000	       0.41551	3.36167
105.72866	 8.57000	       0.39814	3.36156
105.82877	 8.58000	       0.38161	3.36145
105.92890	 8.59000	       0.36555	3.36134
106.02903	 8.60000	       0.35008	3.36123
106.12915	 8.61000	       0.33545	3.36112
106.22933	 8.62000	       0.32093	3.36101
106.32946	 8.63000	       0.30687	3.36090
106.42964	 8.64000	       0.29362	3.36079
106.52977	 8.65000	       0.28046	3.36068
106.62987	 8.66000	       0.26814	3.36057
106.72998	 8.67000	       0.25598	3.36046
106.83005	 8.68000	       0.24406	3.36035
106.93011	 8.69000	       0.23293	3.36024
107.03018	 8.70000	       0.22194	3.36013
107.13025	 8.71000	       0.21157	3.36002
107.23031	 8.72000	       0.20159	3.35990
107.33034	 8.73000	       0.19171	3.35979
107.43038	 8.74000	       0.18227	3.35968
107.53041	 8.75000	       0.17283	3.35957
107.63043	 8.76000	       0.16395	3.35945
107.73048	 8.77000	       0.15554	3.35934
107.83054	 8.78000	       0.14719	3.35923
107.93059	 8.79000	       0.13902	3.35911
108.03056	 8.80000	       0.13141	3.35900
108.13056	 8.81000	       0.12400	3.35889
108.23061	 8.82000	       0.11666	3.35877
108.33066	 8.83000	       0.10926	3.35866
108.43070	 8.84000	       0.10242	3.35854
108.53074	 8.85000	 9.564719e-002	3.35843
108.63080	 8.86000	 8.910773e-002	3.35831
108.73080	 8.87000	 8.300348e-002	3.35820
108.83087	 8.88000	 7.669703e-002	3.35808
108.93087	 8.89000	 7.075725e-002	3.35797
109.03085	 8.90000	 6.495758e-002	3.35785
109.13087	 8.91000	 5.916951e-002	3.35774
109.23090	 8.92000	 5.394998e-002	3.35762
109.33092	 8.93000	 4.882903e-002	3.35750
109.43093	 8.94000	 4.380886e-002	3.35739
109.53095	 8.95000	 3.872106e-002	3.35727
109.63093	 8.96000	 3.349879e-002	3.35715
109.73097	 8.97000	 2.867722e-002	3.35704
109.83093	 8.98000	 2.439139e-002	3.35692
109.93092	 8.99000	 2.003709e-002	3.35680
110.03105	 9.00000	 1.541467e-002	3.35668
110.13108	 9.01000	 1.125793e-002	3.35656
110.23108	 9.02000	 7.234153e-003	3.35645
110.33102	 9.03000	 2.909673e-003	3.35633
110.43095	 9.04000	-1.347814e-003	3.35621
110.53087	 9.05000	-5.238306e-003	3.35609
110.63079	 9.06000	-8.861618e-003	3.35597
110.73079	 9.07000	-1.241831e-002	3.35585
110.83079	 9.08000	-1.604256e-002	3.35573
110.93074	 9.09000	-1.973307e-002	3.35561
111.03074	 9.10000	-2.326340e-002	3.35549
111.13077	 9.11000	-2.660943e-002	3.35537
111.23075	 9.12000	-3.025663e-002	3.35525
111.33082	 9.13000	-3.323531e-002	3.35513
111.43087	 9.14000	-3.634665e-002	3.35501
111.53087	 9.15000	-3.949254e-002	3.35489
111.63089	 9.16000	-4.267253e-002	3.35477
111.73085	 9.17000	-4.575155e-002	3.35465
111.83080	 9.18000	-4.866398e-002	3.35453
111.93084	 9.19000	-5.157708e-002	3.35441
112.03080	 9.20000	-5.448964e-002	3.35428
112.13077	 9.21000	-5.730463e-002	3.35416
112.23072	 9.22000	-5.991824e-002	3.35404
112.33069	 9.23000	-6.253248e-002	3.35392
112.43072	 9.24000	-6.461211e-002	3.35379
112.53066	 9.25000	-6.729320e-002	3.35367
112.63061	 9.26000	-7.000925e-002	3.35355
112.73048	 9.27000	-7.259035e-002	3.35342
112.83041	 9.28000	-7.510519e-002	3.35330
112.93039	 9.29000	-7.765368e-002	3.35318
113.03038	 9.30000	-8.009786e-002	3.35305
113.13028	 9.31000	-8.226552e-002	3.35293
113.23030	 9.32000	-8.439946e-002	3.35280
113.33026	 9.33000	-8.663440e-002	3.35268
113.43016	 9.34000	-8.860090e-002	3.35256
113.53010	 9.35000	-9.080269e-002	3.35243
113.62998	 9.36000	-9.307072e-002	3.35231
113.72998	 9.37000	-9.520636e-002	3.35218
113.83005	 9.38000	-9.733998e-002	3.35205
113.93007	 9.39000	-9.940812e-002	3.35193
114.03005	 9.40000	      -0.10131	3.35180
114.13008	 9.41000	      -0.10319	3.35168
114.23018	 9.42000	      -0.10515	3.35155
114.33020	 9.43000	      -0.10717	3.35142
114.43031	 9.44000	      -0.10876	3.35130
114.53043	 9.45000	      -0.11045	3.35117
114.63049	 9.46000	      -0.11230	3.35104
114.73054	 9.47000	      -0.11419	3.35091
114.83066	 9.48000	      -0.11601	3.35079
114.93072	 9.49000	      -0.11797	3.35066
115.03075	 9.50000	      -0.11980	3.35053
115.13085	 9.51000	      -0.12138	3.35040
115.23089	 9.52000	      -0.12303	3.35027
115.33090	 9.53000	      -0.12495	3.35014
115.43095	 9.54000	      -0.12669	3.35001
115.53098	 9.55000	      -0.12827	3.34989
115.63105	 9.56000	      -0.12992	3.34976
115.73113	 9.57000	      -0.13154	3.34963
115.83115	 9.58000	      -0.13312	3.34950
115.93115	 9.59000	      -0.13477	3.34937
116.03118	 9.60000	      -0.13632	3.34924
116.13121	 9.61000	      -0.13799	3.34911
116.23116	 9.62000	      -0.13981	3.34898
116.33116	 9.63000	      -0.14112	3.34884
116.43113	 9.64000	      -0.14296	3.34871
116.53111	 9.65000	      -0.14451	3.34858
116.63105	 9.66000	      -0.14599	3.34845
116.73102	 9.67000	      -0.14750	3.34832
116.83100	 9.68000	      -0.14918	3.34819
116.93093	 9.69000	      -0.15089	3.34806
117.03085	 9.70000	      -0.15231	3.34792
117.13077	 9.71000	      -0.15387	3.34779
117.23072	 9.72000	      -0.15543	3.34766
117.33070	 9.73000	      -0.15709	3.34753
117.43064	 9.74000	      -0.15868	3.34739
117.53054	 9.75000	      -0.16024	3.34726
117.63048	 9.76000	      -0.16183	3.34713
117.73041	 9.77000	      -0.16349	3.34699
117.83038	 9.78000	      -0.16536	3.34686
117.93036	 9.79000	      -0.16718	3.34673
118.03026	 9.80000	      -0.16900	3.34659
118.13015	 9.81000	      -0.17107	3.34646
118.23003	 9.82000	      -0.17289	3.34632
118.32997	 9.83000	      -0.17462	3.34619
118.42987	 9.84000	      -0.17645	3.34605
118.52980	 9.85000	      -0.17828	3.34592
118.62974	 9.86000	      -0.18038	3.34578
118.72972	 9.87000	      -0.18261	3.34565
118.82972	 9.88000	      -0.18470	3.34551
118.92972	 9.89000	      -0.18683	3.34538
119.02967	 9.90000	      -0.18907	3.34524
119.12967	 9.91000	      -0.19144	3.34510
119.22972	 9.92000	      -0.19388	3.34497
119.32969	 9.93000	      -0.19628	3.34483
119.42972	 9.94000	      -0.19875	3.34469
119.52977	 9.95000	      -0.20143	3.34456
119.62984	 9.96000	      -0.20424	3.34442
119.72989	 9.97000	      -0.20701	3.34428
119.82989	 9.98000	      -0.20999	3.34414
119.92990	 9.99000	      -0.21313	3.34401
120.02993	10.00000	      -0.21648	3.34387
120.12998	10.01000	      -0.21946	3.34373
120.23007	10.02000	      -0.22257	3.34359
120.33013	10.03000	      -0.22589	3.34345
120.43026	10.04000	      -0.22945	3.34331
120.53043	10.05000	      -0.23320	3.34317
120.63057	10.06000	      -0.23699	3.34303
120.73080	10.07000	      -0.24081	3.34289
120.83098	10.08000	      -0.24473	3.34275
120.93111	10.09000	      -0.24906	3.34261
121.03125	10.10000	      -0.25326	3.34247
121.13138	10.11000	      -0.25770	3.34233
121.23146	10.12000	      -0.26234	3.34219
121.33143	10.13000	      -0.26739	3.34205
121.43143	10.14000	      -0.27210	3.34191
121.53148	10.15000	      -0.27731	3.34177
121.63144	10.16000	      -0.28249	3.34163
121.73141	10.17000	      -0.28784	3.34149
121.83138	10.18000	      -0.29353	3.34134
121.93130	10.19000	      -0.29935	3.34120
122.03120	10.20000	      -0.30537	3.34106
122.13110	10.21000	      -0.31164	3.34092
122.23105	10.22000	      -0.31771	3.34078
122.33097	10.23000	      -0.32415	3.34063
122.43080	10.24000	      -0.33083	3.34049
122.53061	10.25000	      -0.33774	3.34035
122.63041	10.26000	      -0.34465	3.34020
122.73018	10.27000	      -0.35166	3.34006
122.82998	10.28000	      -0.35918	3.33992
122.92984	10.29000	      -0.36649	3.33977
123.02969	10.30000	      -0.37366	3.33963
123.12957	10.31000	      -0.38091	3.33949
123.22946	10.32000	      -0.38820	3.33934
123.32939	10.33000	      -0.39542	3.33920
123.42938	10.34000	      -0.40250	3.33905
123.52928	10.35000	      -0.40922	3.33891
123.62931	10.36000	      -0.41566	3.33876
123.72936	10.37000	      -0.42235	3.33862
123.82938	10.38000	      -0.42846	3.33847
123.92941	10.39000	      -0.43447	3.33833
124.02949	10.40000	      -0.44029	3.33818
124.12959	10.41000	      -0.44574	3.33803
124.22964	10.42000	      -0.45072	3.33789
124.32972	10.43000	      -0.45588	3.33774
124.42979	10.44000	      -0.46036	3.33759
124.52984	10.45000	      -0.46467	3.33745
124.62990	10.46000	      -0.46851	3.33730
124.73002	10.47000	      -0.47192	3.33715
124.83010	10.48000	      -0.47476	3.33700
124.93020	10.49000	      -0.47692	3.33686
125.03036	10.50000	      -0.47861	3.33671
125.13043	10.51000	      -0.47988	3.33656
125.23059	10.52000	      -0.48004	3.33641
125.33066	10.53000	      -0.47942	3.33626
125.43077	10.54000	      -0.47790	3.33611
125.53089	10.55000	      -0.47557	3.33596
125.63095	10.56000	      -0.47230	3.33582
125.73105	10.57000	      -0.46781	3.33567
125.83115	10.58000	      -0.46229	3.33552
125.93128	10.59000	      -0.45592	3.33537
126.03134	10.60000	      -0.44849	3.33522
126.13148	10.61000	      -0.43996	3.33507
126.23157	10.62000	      -0.43048	3.33492
126.33169	10.63000	      -0.42063	3.33476
126.43189	10.64000	      -0.40971	3.33461
126.53208	10.65000	      -0.39851	3.33446
126.63229	10.66000	      -0.38742	3.33431
126.73243	10.67000	      -0.37609	3.33416
126.83256	10.68000	      -0.36479	3.33401
126.93264	10.69000	      -0.35409	3.33386
127.03269	10.70000	      -0.34328	3.33371
127.13275	10.71000	      -0.33315	3.33355
127.23285	10.72000	      -0.32360	3.33340
127.33298	10.73000	      -0.31510	3.33325
127.43305	10.74000	      -0.30699	3.33310
127.53316	10.75000	      -0.29943	3.33294
127.63325	10.76000	      -0.29287	3.33279
127.73330	10.77000	      -0.28695	3.33264
127.83330	10.78000	      -0.28167	3.33248
127.93330	10.79000	      -0.27676	3.33233
128.03325	10.80000	      -0.27256	3.33218
128.13316	10.81000	      -0.26889	3.33202
128.23310	10.82000	      -0.26592	3.33187
128.33298	10.83000	      -0.26326	3.33171
128.43279	10.84000	      -0.26090	3.33156
128.53266	10.85000	      -0.25871	3.33141
128.63249	10.86000	      -0.25729	3.33125
128.73241	10.87000	      -0.25601	3.33110
128.83234	10.88000	      -0.25470	3.33094
128.93233	10.89000	      -0.25335	3.33079
129.03210	10.90000	      -0.25271	3.33063
129.13195	10.91000	      -0.25255	3.33047
129.23172	10.92000	      -0.25208	3.33032
129.33141	10.93000	      -0.25165	3.33016
129.43120	10.94000	      -0.25155	3.33001
129.53098	10.95000	      -0.25149	3.32985
129.63074	10.96000	      -0.25146	3.32970
129.73051	10.97000	      -0.25150	3.32954
129.83034	10.98000	      -0.25201	3.32938
129.93011	10.99000	      -0.25192	3.32922
130.02998	11.00000	      -0.25220	3.32907
130.12985	11.01000	      -0.25287	3.32891
130.22972	11.02000	      -0.25340	3.32875
130.32962	11.03000	      -0.25404	3.32859
130.42962	11.04000	      -0.25410	3.32844
130.52959	11.05000	      -0.25497	3.32828
130.62956	11.06000	      -0.25550	3.32812
130.72949	11.07000	      -0.25614	3.32796
130.82939	11.08000	      -0.25677	3.32780
130.92928	11.09000	      -0.25751	3.32764
131.02929	11.10000	      -0.25820	3.32748
131.12933	11.11000	      -0.25900	3.32732
131.22939	11.12000	      -0.25940	3.32716
131.32957	11.13000	      -0.26014	3.32700
131.42969	11.14000	      -0.26105	3.32684
131.52975	11.15000	      -0.26188	3.32668
131.62982	11.16000	      -0.26239	3.32652
131.72990	11.17000	      -0.26319	3.32636
131.82993	11.18000	      -0.26396	3.32620
131.93005	11.19000	      -0.26456	3.32604
132.03015	11.20000	      -0.26534	3.32588
132.13025	11.21000	      -0.26589	3.32572
132.23039	11.22000	      -0.26664	3.32556
132.33048	11.23000	      -0.26759	3.32539
132.43051	11.24000	      -0.26848	3.32523
132.53054	11.25000	      -0.26920	3.32507
132.63057	11.26000	      -0.26971	3.32491
132.73069	11.27000	      -0.27026	3.32474
132.83074	11.28000	      -0.27108	3.32458
132.93082	11.29000	      -0.27166	3.32442
133.03093	11.30000	      -0.27275	3.32426
133.13095	11.31000	      -0.27328	3.32409
133.23102	11.32000	      -0.27397	3.32393
133.33110	11.33000	      -0.27467	3.32377
133.43106	11.34000	      -0.27503	3.32360
133.53102	11.35000	      -0.27604	3.32344
133.63095	11.36000	      -0.27697	3.32327
133.73090	11.37000	      -0.27760	3.32311
133.83093	11.38000	      -0.27830	3.32295
133.93097	11.39000	      -0.27897	3.32278
134.03093	11.40000	      -0.27973	3.32262
134.13090	11.41000	      -0.28052	3.32245
134.23082	11.42000	      -0.28071	3.32229
134.33085	11.43000	      -0.28136	3.32212
134.43085	11.44000	      -0.28229	3.32195
134.53087	11.45000	      -0.28295	3.32179
134.63083	11.46000	      -0.28341	3.32162
134.73075	11.47000	      -0.28406	3.32146
134.83065	11.48000	      -0.28469	3.32129
134.93057	11.49000	      -0.28534	3.32112
135.03047	11.50000	      -0.28598	3.32096
135.13038	11.51000	      -0.28669	3.32079
135.23033	11.52000	      -0.28703	3.32062
135.33018	11.53000	      -0.28804	3.32046
135.43008	11.54000	      -0.28888	3.32029
135.53007	11.55000	      -0.28942	3.32012
135.63008	11.56000	      -0.28992	3.31995
135.73015	11.57000	      -0.29056	3.31979
135.83015	11.58000	      -0.29117	3.31962
135.93013	11.59000	      -0.29151	3.31945
136.03020	11.60000	      -0.29197	3.31928
136.13028	11.61000	      -0.29263	3.31911
136.23038	11.62000	      -0.29323	3.31894
136.33041	11.63000	      -0.29373	3.31877
136.43047	11.64000	      -0.29413	3.31861
136.53052	11.65000	      -0.29449	3.31844
136.63067	11.66000	      -0.29479	3.31827
136.73079	11.67000	      -0.29525	3.31810
136.83088	11.68000	      -0.29565	3.31793
136.93098	11.69000	      -0.29594	3.31776
137.03105	11.70000	      -0.29624	3.31759
137.13115	11.71000	      -0.29639	3.31741
137.23120	11.72000	      -0.29672	3.31724
137.33123	11.73000	      -0.29715	3.31707
137.43125	11.74000	      -0.29734	3.31690
137.53130	11.75000	      -0.29736	3.31673
137.63136	11.76000	      -0.29793	3.31656
137.73139	11.77000	      -0.29819	3.31639
137.83141	11.78000	      -0.29821	3.31622
137.93143	11.79000	      -0.29810	3.31604
138.03141	11.80000	      -0.29826	3.31587
138.13138	11.81000	      -0.29845	3.31570
138.23130	11.82000	      -0.29839	3.31553
138.33130	11.83000	      -0.29871	3.31535
138.43125	11.84000	      -0.29886	3.31518
138.53128	11.85000	      -0.29905	3.31501
138.63121	11.86000	      -0.29899	3.31484
138.73118	11.87000	      -0.29911	3.31466
138.83118	11.88000	      -0.29916	3.31449
138.93116	11.89000	      -0.29910	3.31432
139.03113	11.90000	      -0.29901	3.31414
139.13113	11.91000	      -0.29908	3.31397
139.23115	11.92000	      -0.29905	3.31379
139.33118	11.93000	      -0.29911	3.31362
139.43129	11.94000	      -0.29898	3.31344
139.53138	11.95000	      -0.29891	3.31327
139.63141	11.96000	      -0.29894	3.31309
139.73141	11.97000	      -0.29908	3.31292
139.83139	11.98000	      -0.29911	3.31274
139.93139	11.99000	      -0.29887	3.31257
140.03139	12.00000	      -0.29884	3.31239
140.13144	12.01000	      -0.29898	3.31222
140.23143	12.02000	      -0.29892	3.31204
140.33143	12.03000	      -0.29882	3.31186
140.43134	12.04000	      -0.29872	3.31169
140.53126	12.05000	      -0.29862	3.31151
140.63116	12.06000	      -0.29845	3.31134
140.73112	12.07000	      -0.29829	3.31116
140.83110	12.08000	      -0.29792	3.31098
140.93112	12.09000	      -0.29772	3.31080
141.03110	12.10000	      -0.29759	3.31063
141.13108	12.11000	      -0.29756	3.31045
141.23103	12.12000	      -0.29747	3.31027
141.33107	12.13000	      -0.29747	3.31009
141.43112	12.14000	      -0.29731	3.30992
141.53105	12.15000	      -0.29708	3.30974
141.63098	12.16000	      -0.29682	3.30956
141.73098	12.17000	      -0.29669	3.30938
141.83097	12.18000	      -0.29639	3.30920
141.93095	12.19000	      -0.29653	3.30902
142.03089	12.20000	      -0.29640	3.30884
142.13084	12.21000	      -0.29635	3.30867
142.23079	12.22000	      -0.29629	3.30849
142.33080	12.23000	      -0.29620	3.30831
142.43079	12.24000	      -0.29560	3.30813
142.53084	12.25000	      -0.29561	3.30795
142.63087	12.26000	      -0.29555	3.30777
142.73094	12.27000	      -0.29526	3.30759
142.83097	12.28000	      -0.29507	3.30741
142.93097	12.29000	      -0.29518	3.30722
143.03103	12.30000	      -0.29505	3.30704
143.13111	12.31000	      -0.29478	3.30686
143.23118	12.32000	      -0.29484	3.30668
143.33120	12.33000	      -0.29466	3.30650
143.43120	12.34000	      -0.29452	3.30632
143.53118	12.35000	      -0.29442	3.30614
143.63120	12.36000	      -0.29428	3.30595
143.73113	12.37000	      -0.29383	3.30577
143.83111	12.38000	      -0.29386	3.30559
143.93115	12.39000	      -0.29378	3.30541
144.03120	12.40000	      -0.29354	3.30523
144.13125	12.41000	      -0.29334	3.30504
144.23130	12.42000	      -0.29320	3.30486
144.33133	12.43000	      -0.29300	3.30468
144.43138	12.44000	      -0.29266	3.30449
144.53121	12.45000	      -0.29226	3.30431
144.63113	12.46000	      -0.29215	3.30413
144.73100	12.47000	      -0.29202	3.30394
144.83087	12.48000	      -0.29171	3.30376
144.93069	12.49000	      -0.29148	3.30358
145.03057	12.50000	      -0.29124	3.30339
145.13043	12.51000	      -0.29127	3.30321
145.23031	12.52000	      -0.29099	3.30302
145.33020	12.53000	      -0.29082	3.30284
145.43010	12.54000	      -0.29071	3.30265
145.53000	12.55000	      -0.29061	3.30247
145.62995	12.56000	      -0.29057	3.30228
145.72993	12.57000	      -0.29039	3.30210
145.82987	12.58000	      -0.29025	3.30191
145.92985	12.59000	      -0.29015	3.30173
146.02979	12.60000	      -0.29008	3.30154
146.12977	12.61000	      -0.28987	3.30135
146.22972	12.62000	      -0.28984	3.30117
146.32969	12.63000	      -0.28971	3.30098
146.42962	12.64000	      -0.28930	3.30080
146.52966	12.65000	      -0.28920	3.30061
146.62979	12.66000	      -0.28913	3.30042
146.72989	12.67000	      -0.28896	3.30023
146.82998	12.68000	      -0.28865	3.30005
146.93010	12.69000	      -0.28866	3.29986
147.03012	12.70000	      -0.28842	3.29967
147.13025	12.71000	      -0.28839	3.29948
147.23036	12.72000	      -0.28823	3.29929
147.33043	12.73000	      -0.28776	3.29911
147.43048	12.74000	      -0.28756	3.29892
147.53056	12.75000	      -0.28736	3.29873
147.63062	12.76000	      -0.28730	3.29854
147.73072	12.77000	      -0.28734	3.29835
147.83084	12.78000	      -0.28704	3.29816
147.93094	12.79000	      -0.28678	3.29797
148.03103	12.80000	      -0.28658	3.29778
148.13110	12.81000	      -0.28637	3.29759
148.23116	12.82000	      -0.28617	3.29740
148.33131	12.83000	      -0.28617	3.29721
148.43139	12.84000	      -0.28596	3.29702
148.53151	12.85000	      -0.28569	3.29683
148.63161	12.86000	      -0.28549	3.29664
148.73169	12.87000	      -0.28525	3.29645
148.83174	12.88000	      -0.28508	3.29626
148.93184	12.89000	      -0.28460	3.29607
149.03192	12.90000	      -0.28443	3.29588
149.13193	12.91000	      -0.28423	3.29569
149.23192	12.92000	      -0.28414	3.29550
149.33189	12.93000	      -0.28387	3.29531
149.43189	12.94000	      -0.28361	3.29511
149.53190	12.95000	      -0.28341	3.29492
149.63189	12.96000	      -0.28304	3.29473
149.73187	12.97000	      -0.28281	3.29454
149.83180	12.98000	      -0.28262	3.29435
149.93172	12.99000	      -0.28252	3.29415
150.03167	13.00000	      -0.28213	3.29396
150.13157	13.01000	      -0.28191	3.29377
150.23148	13.02000	      -0.28173	3.29358
150.33136	13.03000	      -0.28155	3.29338
150.43133	13.04000	      -0.28110	3.29319
150.53123	13.05000	      -0.28102	3.29300
150.63112	13.06000	      -0.28095	3.29280
150.73100	13.07000	      -0.28066	3.29261
150.83095	13.08000	      -0.28045	3.29241
150.93087	13.09000	      -0.28024	3.29222
151.03077	13.10000	      -0.27991	3.29203
151.13072	13.11000	      -0.27955	3.29183
151.23066	13.12000	      -0.27933	3.29164
151.33064	13.13000	      -0.27922	3.29144
151.43061	13.14000	      -0.27910	3.29125
151.53051	13.15000	      -0.27864	3.29105
151.63043	13.16000	      -0.27853	3.29086
151.73046	13.17000	      -0.27851	3.29066
151.83048	13.18000	      -0.27812	3.29047
151.93049	13.19000	      -0.27773	3.29027
152.03049	13.20000	      -0.27707	3.29008
152.13054	13.21000	      -0.27724	3.28988
152.23059	13.22000	      -0.27714	3.28968
152.33064	13.23000	      -0.27676	3.28949
152.43066	13.24000	      -0.27642	3.28929
152.53067	13.25000	      -0.27625	3.28909
152.63072	13.26000	      -0.27597	3.28890
152.73074	13.27000	      -0.27553	3.28870
152.83075	13.28000	      -0.27549	3.28850
152.93082	13.29000	      -0.27518	3.28830
153.03089	13.30000	      -0.27494	3.28811
153.13095	13.31000	      -0.27436	3.28791
153.23098	13.32000	      -0.27401	3.28771
153.33103	13.33000	      -0.27374	3.28751
153.43108	13.34000	      -0.27353	3.28731
153.53115	13.35000	      -0.27332	3.28712
153.63128	13.36000	      -0.27301	3.28692
153.73134	13.37000	      -0.27263	3.28672
153.83136	13.38000	      -0.27238	3.28652
153.93138	13.39000	      -0.27207	3.28632
154.03139	13.40000	      -0.27176	3.28612
154.13144	13.41000	      -0.27142	3.28592
154.23148	13.42000	      -0.27119	3.28572
154.33156	13.43000	      -0.27054	3.28552
154.43159	13.44000	      -0.27010	3.28532
154.53157	13.45000	      -0.26997	3.28512
154.63161	13.46000	      -0.26963	3.28492
154.73167	13.47000	      -0.26919	3.28472
154.83180	13.48000	      -0.26881	3.28452
154.93193	13.49000	      -0.26875	3.28432
155.03202	13.50000	      -0.26845	3.28412
155.13215	13.51000	      -0.26806	3.28392
155.23216	13.52000	      -0.26753	3.28372
155.33216	13.53000	      -0.26707	3.28352
155.43218	13.54000	      -0.26696	3.28332
155.53220	13.55000	      -0.26657	3.28311
155.63219	13.56000	      -0.26604	3.28291
155.73226	13.57000	      -0.26568	3.28271
155.83233	13.58000	      -0.26563	3.28251
155.93244	13.59000	      -0.26531	3.28231
156.03261	13.60000	      -0.26488	3.28210
156.13278	13.61000	      -0.26446	3.28190
156.23272	13.62000	      -0.26401	3.28170
156.33227	13.63000	      -0.26355	3.28150
156.43167	13.64000	      -0.26310	3.28129
156.53167	13.65000	      -0.26272	3.28109

