#EXPORTTYPE:                 	DATA SINGLE                            
#FILE:                       	SK_Mix_resin_entalp75kpm_20-150.ngb-sdg
#FORMAT:                     	NETZSCH5                               
#FTYPE:                      	ASCII                                  
#IDENTITY:                   	SK_epoxy                               
#DECIMAL:                    	POINT                                  
#SEPARATOR:                  	TAB                                    
#MTYPE:                      	DSC                                    
#INSTRUMENT:                 	NETZSCH DSC 214                        
#PROJECT:                    	?ø?†??-Ø                             
#DATE/TIME:                  	12.09.2019 20:53:40 (UTC+3)            
#CORR. FILE:                 	                                       
#TEMPCAL:                    	applied                                
#SENSITIVITY:                	applied                                
#LABORATORY:                 	CISIS                                  
#OPERATOR:                   	Nasonov                                
#REMARK:                     	                                       
#SAMPLE:                     	20190907_1083-G290S -0-                
#SAMPLE MASS /mg:            	9.12                                   
#MATERIAL:                   	                                       
#REFERENCE:                  	                                       
#REFERENCE MASS /mg:         	0                                      
#TYPE OF CRUCIBLE:           	Concavus Pan Al, pierced lid           
#SAMPLE CRUCIBLE MASS /mg:   	0                                      
#REFERENCE CRUCIBLE MASS /mg:	0                                      
#M.RANGE /ßV:                	5000                                   
#TAU-R:                      	---                                    
#CORR. CODE:                 	009                                    
#EXO:                        	+1                                     
#RANGE:                      	20ËC/7.5(K/min)/150ËC                  
#SEGMENT:                    	S1/1                                   
#SEG. 1:                     	20ËC/7.5(K/min)/150ËC                  

##Temp./ËC	Time/min	DSC/(mW/mg)	Sensit./(uV/mW)
 20.07100	 0.00000	 2.965977e-002	3.36739
 20.06920	 0.01000	 2.990771e-002	3.36739
 20.06833	 0.02000	 3.003087e-002	3.36739
 20.07369	 0.03000	 3.003104e-002	3.36739
 20.08965	 0.04000	 2.871651e-002	3.36741
 20.11686	 0.05000	 2.402773e-002	3.36744
 20.15492	 0.06000	 1.544244e-002	3.36748
 20.20369	 0.07000	 2.986350e-003	3.36753
 20.26224	 0.08000	-1.254509e-002	3.36759
 20.32938	 0.09000	-3.075621e-002	3.36766
 20.40441	 0.10000	-5.072572e-002	3.36773
 20.48629	 0.11000	-7.208288e-002	3.36782
 20.57388	 0.12000	-9.455272e-002	3.36791
 20.66609	 0.13000	      -0.11781	3.36800
 20.74973	 0.14000	      -0.14130	3.36809
 20.82525	 0.15000	      -0.16483	3.36817
 20.90502	 0.16000	      -0.18840	3.36825
 20.98896	 0.17000	      -0.21135	3.36833
 21.07696	 0.18000	      -0.23358	3.36842
 21.16867	 0.19000	      -0.25496	3.36852
 21.26362	 0.20000	      -0.27526	3.36861
 21.36136	 0.21000	      -0.29403	3.36871
 21.46145	 0.22000	      -0.31162	3.36881
 21.56353	 0.23000	      -0.32780	3.36891
 21.66716	 0.24000	      -0.34244	3.36902
 21.77207	 0.25000	      -0.35573	3.36912
 21.87782	 0.26000	      -0.36699	3.36923
 21.98400	 0.27000	      -0.37691	3.36933
 22.09029	 0.28000	      -0.38518	3.36944
 22.19631	 0.29000	      -0.39176	3.36954
 22.30191	 0.30000	      -0.39690	3.36964
 22.40693	 0.31000	      -0.40063	3.36975
 22.51093	 0.32000	      -0.40322	3.36985
 22.61375	 0.33000	      -0.40417	3.36995
 22.71518	 0.34000	      -0.40375	3.37005
 22.81507	 0.35000	      -0.40254	3.37014
 22.91329	 0.36000	      -0.39995	3.37024
 23.00964	 0.37000	      -0.39656	3.37033
 23.10422	 0.38000	      -0.39229	3.37042
 23.19685	 0.39000	      -0.38710	3.37051
 23.28756	 0.40000	      -0.38161	3.37060
 23.37635	 0.41000	      -0.37523	3.37068
 23.46309	 0.42000	      -0.36854	3.37076
 23.54789	 0.43000	      -0.36142	3.37084
 23.63084	 0.44000	      -0.35405	3.37092
 23.71178	 0.45000	      -0.34662	3.37100
 23.79102	 0.46000	      -0.33911	3.37107
 23.86849	 0.47000	      -0.33155	3.37115
 23.94431	 0.48000	      -0.32411	3.37122
 24.01858	 0.49000	      -0.31673	3.37129
 24.09144	 0.50000	      -0.30954	3.37135
 24.16295	 0.51000	      -0.30267	3.37142
 24.23322	 0.52000	      -0.29585	3.37149
 24.30233	 0.53000	      -0.28943	3.37155
 24.37042	 0.54000	      -0.28346	3.37161
 24.43764	 0.55000	      -0.27769	3.37167
 24.50411	 0.56000	      -0.27231	3.37174
 24.56989	 0.57000	      -0.26731	3.37180
 24.63505	 0.58000	      -0.26261	3.37186
 24.69973	 0.59000	      -0.25835	3.37192
 24.76402	 0.60000	      -0.25479	3.37197
 24.82802	 0.61000	      -0.25162	3.37203
 24.89185	 0.62000	      -0.24873	3.37209
 24.95560	 0.63000	      -0.24621	3.37215
 25.01942	 0.64000	      -0.24432	3.37221
 25.08333	 0.65000	      -0.24275	3.37226
 25.14733	 0.66000	      -0.24132	3.37232
 25.21147	 0.67000	      -0.24038	3.37238
 25.27589	 0.68000	      -0.24001	3.37244
 25.34064	 0.69000	      -0.23998	3.37250
 25.40567	 0.70000	      -0.24011	3.37255
 25.47115	 0.71000	      -0.24036	3.37261
 25.53705	 0.72000	      -0.24108	3.37267
 25.60335	 0.73000	      -0.24200	3.37273
 25.67011	 0.74000	      -0.24304	3.37279
 25.73731	 0.75000	      -0.24443	3.37285
 25.80502	 0.76000	      -0.24584	3.37291
 25.87315	 0.77000	      -0.24735	3.37297
 25.94178	 0.78000	      -0.24931	3.37303
 26.01095	 0.79000	      -0.25109	3.37309
 26.08056	 0.80000	      -0.25289	3.37315
 26.15065	 0.81000	      -0.25479	3.37321
 26.22113	 0.82000	      -0.25650	3.37327
 26.29202	 0.83000	      -0.25835	3.37334
 26.36333	 0.84000	      -0.26037	3.37340
 26.43513	 0.85000	      -0.26232	3.37346
 26.50729	 0.86000	      -0.26424	3.37352
 26.57989	 0.87000	      -0.26614	3.37359
 26.65280	 0.88000	      -0.26786	3.37365
 26.72598	 0.89000	      -0.26954	3.37371
 26.79953	 0.90000	      -0.27119	3.37378
 26.87324	 0.91000	      -0.27286	3.37384
 26.94720	 0.92000	      -0.27433	3.37390
 27.02133	 0.93000	      -0.27564	3.37396
 27.09575	 0.94000	      -0.27707	3.37403
 27.17033	 0.95000	      -0.27840	3.37409
 27.24504	 0.96000	      -0.27966	3.37415
 27.31991	 0.97000	      -0.28059	3.37422
 27.39493	 0.98000	      -0.28160	3.37428
 27.46996	 0.99000	      -0.28256	3.37434
 27.54509	 1.00000	      -0.28334	3.37441
 27.62025	 1.01000	      -0.28415	3.37447
 27.69547	 1.02000	      -0.28474	3.37453
 27.77071	 1.03000	      -0.28538	3.37460
 27.84593	 1.04000	      -0.28564	3.37466
 27.92118	 1.05000	      -0.28615	3.37472
 27.99633	 1.06000	      -0.28639	3.37478
 28.07147	 1.07000	      -0.28686	3.37484
 28.14662	 1.08000	      -0.28736	3.37491
 28.22165	 1.09000	      -0.28741	3.37497
 28.29680	 1.10000	      -0.28746	3.37503
 28.37189	 1.11000	      -0.28756	3.37509
 28.44696	 1.12000	      -0.28771	3.37515
 28.52195	 1.13000	      -0.28796	3.37521
 28.59680	 1.14000	      -0.28804	3.37527
 28.67162	 1.15000	      -0.28812	3.37533
 28.74638	 1.16000	      -0.28805	3.37539
 28.82122	 1.17000	      -0.28795	3.37545
 28.89596	 1.18000	      -0.28788	3.37551
 28.97064	 1.19000	      -0.28785	3.37557
 29.04525	 1.20000	      -0.28784	3.37563
 29.11982	 1.21000	      -0.28781	3.37569
 29.19442	 1.22000	      -0.28765	3.37575
 29.26898	 1.23000	      -0.28755	3.37581
 29.34347	 1.24000	      -0.28749	3.37587
 29.41793	 1.25000	      -0.28759	3.37593
 29.49238	 1.26000	      -0.28758	3.37599
 29.56682	 1.27000	      -0.28757	3.37604
 29.64120	 1.28000	      -0.28762	3.37610
 29.71556	 1.29000	      -0.28754	3.37616
 29.78996	 1.30000	      -0.28751	3.37622
 29.86435	 1.31000	      -0.28758	3.37627
 29.93871	 1.32000	      -0.28767	3.37633
 30.01307	 1.33000	      -0.28782	3.37639
 30.08751	 1.34000	      -0.28795	3.37645
 30.16191	 1.35000	      -0.28798	3.37650
 30.23636	 1.36000	      -0.28801	3.37656
 30.31078	 1.37000	      -0.28814	3.37662
 30.38524	 1.38000	      -0.28844	3.37667
 30.45965	 1.39000	      -0.28850	3.37673
 30.53407	 1.40000	      -0.28855	3.37679
 30.60858	 1.41000	      -0.28863	3.37684
 30.68309	 1.42000	      -0.28881	3.37690
 30.75764	 1.43000	      -0.28889	3.37696
 30.83213	 1.44000	      -0.28907	3.37701
 30.90665	 1.45000	      -0.28935	3.37707
 30.98122	 1.46000	      -0.28968	3.37712
 31.05585	 1.47000	      -0.28988	3.37718
 31.13047	 1.48000	      -0.28991	3.37723
 31.20504	 1.49000	      -0.29016	3.37729
 31.27962	 1.50000	      -0.29041	3.37734
 31.35427	 1.51000	      -0.29039	3.37740
 31.42893	 1.52000	      -0.29067	3.37745
 31.50364	 1.53000	      -0.29072	3.37751
 31.57829	 1.54000	      -0.29085	3.37756
 31.65302	 1.55000	      -0.29107	3.37762
 31.72776	 1.56000	      -0.29133	3.37767
 31.80253	 1.57000	      -0.29163	3.37772
 31.87731	 1.58000	      -0.29178	3.37778
 31.95213	 1.59000	      -0.29206	3.37783
 32.02698	 1.60000	      -0.29233	3.37789
 32.10182	 1.61000	      -0.29266	3.37794
 32.17667	 1.62000	      -0.29279	3.37799
 32.25153	 1.63000	      -0.29324	3.37805
 32.32644	 1.64000	      -0.29346	3.37810
 32.40135	 1.65000	      -0.29376	3.37815
 32.47631	 1.66000	      -0.29372	3.37820
 32.55125	 1.67000	      -0.29389	3.37826
 32.62624	 1.68000	      -0.29410	3.37831
 32.70118	 1.69000	      -0.29435	3.37836
 32.77613	 1.70000	      -0.29452	3.37841
 32.85113	 1.71000	      -0.29475	3.37847
 32.92605	 1.72000	      -0.29505	3.37852
 33.00105	 1.73000	      -0.29530	3.37857
 33.07607	 1.74000	      -0.29564	3.37862
 33.15104	 1.75000	      -0.29543	3.37867
 33.22609	 1.76000	      -0.29572	3.37872
 33.30115	 1.77000	      -0.29576	3.37877
 33.37615	 1.78000	      -0.29582	3.37883
 33.45111	 1.79000	      -0.29611	3.37888
 33.52611	 1.80000	      -0.29613	3.37893
 33.60111	 1.81000	      -0.29632	3.37898
 33.67611	 1.82000	      -0.29658	3.37903
 33.75113	 1.83000	      -0.29679	3.37908
 33.82620	 1.84000	      -0.29681	3.37913
 33.90116	 1.85000	      -0.29695	3.37918
 33.97618	 1.86000	      -0.29694	3.37923
 34.05115	 1.87000	      -0.29687	3.37928
 34.12613	 1.88000	      -0.29698	3.37933
 34.20109	 1.89000	      -0.29728	3.37938
 34.27609	 1.90000	      -0.29735	3.37943
 34.35105	 1.91000	      -0.29734	3.37948
 34.42602	 1.92000	      -0.29734	3.37952
 34.50093	 1.93000	      -0.29731	3.37957
 34.57591	 1.94000	      -0.29765	3.37962
 34.65091	 1.95000	      -0.29774	3.37967
 34.72587	 1.96000	      -0.29756	3.37972
 34.80087	 1.97000	      -0.29773	3.37977
 34.87585	 1.98000	      -0.29802	3.37981
 34.95084	 1.99000	      -0.29812	3.37986
 35.02587	 2.00000	      -0.29803	3.37991
 35.10085	 2.01000	      -0.29814	3.37996
 35.17587	 2.02000	      -0.29820	3.38001
 35.25087	 2.03000	      -0.29849	3.38005
 35.32589	 2.04000	      -0.29858	3.38010
 35.40091	 2.05000	      -0.29876	3.38015
 35.47587	 2.06000	      -0.29905	3.38019
 35.55098	 2.07000	      -0.29916	3.38024
 35.62604	 2.08000	      -0.29935	3.38029
 35.70111	 2.09000	      -0.29958	3.38033
 35.77620	 2.10000	      -0.29977	3.38038
 35.85124	 2.11000	      -0.30008	3.38042
 35.92625	 2.12000	      -0.30015	3.38047
 36.00131	 2.13000	      -0.30018	3.38052
 36.07640	 2.14000	      -0.30056	3.38056
 36.15147	 2.15000	      -0.30067	3.38061
 36.22655	 2.16000	      -0.30077	3.38065
 36.30164	 2.17000	      -0.30083	3.38070
 36.37673	 2.18000	      -0.30115	3.38074
 36.45178	 2.19000	      -0.30121	3.38079
 36.52689	 2.20000	      -0.30139	3.38083
 36.60182	 2.21000	      -0.30157	3.38088
 36.67682	 2.22000	      -0.30172	3.38092
 36.75178	 2.23000	      -0.30187	3.38097
 36.82676	 2.24000	      -0.30203	3.38101
 36.90171	 2.25000	      -0.30206	3.38105
 36.97676	 2.26000	      -0.30204	3.38110
 37.05176	 2.27000	      -0.30210	3.38114
 37.12675	 2.28000	      -0.30256	3.38118
 37.20173	 2.29000	      -0.30269	3.38123
 37.27671	 2.30000	      -0.30285	3.38127
 37.35169	 2.31000	      -0.30306	3.38131
 37.42667	 2.32000	      -0.30320	3.38136
 37.50178	 2.33000	      -0.30331	3.38140
 37.57678	 2.34000	      -0.30347	3.38144
 37.65175	 2.35000	      -0.30368	3.38148
 37.72676	 2.36000	      -0.30391	3.38153
 37.80171	 2.37000	      -0.30402	3.38157
 37.87665	 2.38000	      -0.30418	3.38161
 37.95158	 2.39000	      -0.30439	3.38165
 38.02653	 2.40000	      -0.30453	3.38169
 38.10153	 2.41000	      -0.30486	3.38174
 38.17651	 2.42000	      -0.30498	3.38178
 38.25156	 2.43000	      -0.30536	3.38182
 38.32660	 2.44000	      -0.30566	3.38186
 38.40158	 2.45000	      -0.30578	3.38190
 38.47658	 2.46000	      -0.30571	3.38194
 38.55155	 2.47000	      -0.30584	3.38198
 38.62658	 2.48000	      -0.30606	3.38202
 38.70160	 2.49000	      -0.30624	3.38206
 38.77665	 2.50000	      -0.30639	3.38210
 38.85175	 2.51000	      -0.30659	3.38214
 38.92682	 2.52000	      -0.30679	3.38218
 39.00184	 2.53000	      -0.30704	3.38222
 39.07685	 2.54000	      -0.30723	3.38226
 39.15193	 2.55000	      -0.30735	3.38230
 39.22695	 2.56000	      -0.30769	3.38234
 39.30204	 2.57000	      -0.30783	3.38238
 39.37711	 2.58000	      -0.30790	3.38242
 39.45216	 2.59000	      -0.30791	3.38246
 39.52718	 2.60000	      -0.30796	3.38250
 39.60220	 2.61000	      -0.30830	3.38253
 39.67724	 2.62000	      -0.30846	3.38257
 39.75222	 2.63000	      -0.30855	3.38261
 39.82724	 2.64000	      -0.30862	3.38265
 39.90233	 2.65000	      -0.30869	3.38269
 39.97745	 2.66000	      -0.30888	3.38273
 40.05256	 2.67000	      -0.30892	3.38276
 40.12767	 2.68000	      -0.30908	3.38280
 40.20269	 2.69000	      -0.30930	3.38284
 40.27780	 2.70000	      -0.30946	3.38287
 40.35284	 2.71000	      -0.30960	3.38291
 40.42795	 2.72000	      -0.30974	3.38295
 40.50307	 2.73000	      -0.30970	3.38299
 40.57818	 2.74000	      -0.30989	3.38302
 40.65329	 2.75000	      -0.30988	3.38306
 40.72844	 2.76000	      -0.30990	3.38309
 40.80358	 2.77000	      -0.30989	3.38313
 40.87869	 2.78000	      -0.31008	3.38317
 40.95378	 2.79000	      -0.31024	3.38320
 41.02885	 2.80000	      -0.31042	3.38324
 41.10402	 2.81000	      -0.31050	3.38327
 41.17909	 2.82000	      -0.31055	3.38331
 41.25420	 2.83000	      -0.31083	3.38334
 41.32931	 2.84000	      -0.31093	3.38338
 41.40438	 2.85000	      -0.31130	3.38342
 41.47945	 2.86000	      -0.31165	3.38345
 41.55458	 2.87000	      -0.31168	3.38348
 41.62964	 2.88000	      -0.31171	3.38352
 41.70473	 2.89000	      -0.31193	3.38355
 41.77982	 2.90000	      -0.31226	3.38359
 41.85487	 2.91000	      -0.31231	3.38362
 41.92989	 2.92000	      -0.31236	3.38366
 42.00493	 2.93000	      -0.31242	3.38369
 42.07996	 2.94000	      -0.31254	3.38372
 42.15502	 2.95000	      -0.31259	3.38376
 42.23002	 2.96000	      -0.31256	3.38379
 42.30509	 2.97000	      -0.31271	3.38382
 42.38007	 2.98000	      -0.31280	3.38386
 42.45507	 2.99000	      -0.31285	3.38389
 42.52996	 3.00000	      -0.31290	3.38392
 42.60491	 3.01000	      -0.31309	3.38395
 42.67985	 3.02000	      -0.31324	3.38399
 42.75476	 3.03000	      -0.31331	3.38402
 42.82964	 3.04000	      -0.31346	3.38405
 42.90453	 3.05000	      -0.31365	3.38408
 42.97945	 3.06000	      -0.31368	3.38411
 43.05442	 3.07000	      -0.31389	3.38415
 43.12940	 3.08000	      -0.31428	3.38418
 43.20442	 3.09000	      -0.31447	3.38421
 43.27935	 3.10000	      -0.31463	3.38424
 43.35429	 3.11000	      -0.31483	3.38427
 43.42920	 3.12000	      -0.31492	3.38430
 43.50415	 3.13000	      -0.31496	3.38433
 43.57909	 3.14000	      -0.31515	3.38436
 43.65402	 3.15000	      -0.31527	3.38439
 43.72896	 3.16000	      -0.31556	3.38442
 43.80395	 3.17000	      -0.31573	3.38445
 43.87895	 3.18000	      -0.31599	3.38448
 43.95396	 3.19000	      -0.31628	3.38451
 44.02900	 3.20000	      -0.31644	3.38454
 44.10404	 3.21000	      -0.31667	3.38457
 44.17905	 3.22000	      -0.31683	3.38460
 44.25404	 3.23000	      -0.31712	3.38463
 44.32904	 3.24000	      -0.31713	3.38466
 44.40407	 3.25000	      -0.31732	3.38469
 44.47915	 3.26000	      -0.31738	3.38472
 44.55425	 3.27000	      -0.31744	3.38475
 44.62940	 3.28000	      -0.31760	3.38478
 44.70455	 3.29000	      -0.31781	3.38480
 44.77962	 3.30000	      -0.31802	3.38483
 44.85473	 3.31000	      -0.31813	3.38486
 44.92982	 3.32000	      -0.31829	3.38489
 45.00496	 3.33000	      -0.31843	3.38492
 45.08002	 3.34000	      -0.31856	3.38494
 45.15511	 3.35000	      -0.31871	3.38497
 45.23013	 3.36000	      -0.31887	3.38500
 45.30518	 3.37000	      -0.31898	3.38503
 45.38027	 3.38000	      -0.31911	3.38505
 45.45536	 3.39000	      -0.31924	3.38508
 45.53045	 3.40000	      -0.31927	3.38511
 45.60553	 3.41000	      -0.31930	3.38513
 45.68053	 3.42000	      -0.31953	3.38516
 45.75553	 3.43000	      -0.31962	3.38519
 45.83058	 3.44000	      -0.31963	3.38521
 45.90565	 3.45000	      -0.31958	3.38524
 45.98067	 3.46000	      -0.31957	3.38527
 46.05573	 3.47000	      -0.31992	3.38529
 46.13075	 3.48000	      -0.32007	3.38532
 46.20575	 3.49000	      -0.32025	3.38534
 46.28078	 3.50000	      -0.32037	3.38537
 46.35578	 3.51000	      -0.32042	3.38539
 46.43075	 3.52000	      -0.32033	3.38542
 46.50571	 3.53000	      -0.32055	3.38544
 46.58064	 3.54000	      -0.32076	3.38547
 46.65558	 3.55000	      -0.32078	3.38549
 46.73055	 3.56000	      -0.32108	3.38552
 46.80555	 3.57000	      -0.32126	3.38554
 46.88058	 3.58000	      -0.32126	3.38556
 46.95562	 3.59000	      -0.32129	3.38559
 47.03056	 3.60000	      -0.32147	3.38561
 47.10560	 3.61000	      -0.32169	3.38564
 47.18056	 3.62000	      -0.32186	3.38566
 47.25556	 3.63000	      -0.32205	3.38568
 47.33056	 3.64000	      -0.32217	3.38571
 47.40556	 3.65000	      -0.32238	3.38573
 47.48055	 3.66000	      -0.32245	3.38575
 47.55558	 3.67000	      -0.32254	3.38577
 47.63060	 3.68000	      -0.32293	3.38580
 47.70564	 3.69000	      -0.32302	3.38582
 47.78069	 3.70000	      -0.32324	3.38584
 47.85565	 3.71000	      -0.32338	3.38586
 47.93069	 3.72000	      -0.32350	3.38589
 48.00573	 3.73000	      -0.32352	3.38591
 48.08078	 3.74000	      -0.32377	3.38593
 48.15582	 3.75000	      -0.32378	3.38595
 48.23084	 3.76000	      -0.32384	3.38597
 48.30593	 3.77000	      -0.32389	3.38599
 48.38105	 3.78000	      -0.32408	3.38602
 48.45613	 3.79000	      -0.32436	3.38604
 48.53116	 3.80000	      -0.32454	3.38606
 48.60616	 3.81000	      -0.32474	3.38608
 48.68122	 3.82000	      -0.32483	3.38610
 48.75636	 3.83000	      -0.32503	3.38612
 48.83151	 3.84000	      -0.32521	3.38614
 48.90667	 3.85000	      -0.32520	3.38616
 48.98182	 3.86000	      -0.32516	3.38618
 49.05693	 3.87000	      -0.32523	3.38620
 49.13207	 3.88000	      -0.32540	3.38622
 49.20716	 3.89000	      -0.32545	3.38624
 49.28227	 3.90000	      -0.32551	3.38626
 49.35736	 3.91000	      -0.32563	3.38628
 49.43242	 3.92000	      -0.32568	3.38630
 49.50744	 3.93000	      -0.32586	3.38632
 49.58249	 3.94000	      -0.32603	3.38633
 49.65755	 3.95000	      -0.32621	3.38635
 49.73256	 3.96000	      -0.32645	3.38637
 49.80758	 3.97000	      -0.32663	3.38639
 49.88264	 3.98000	      -0.32685	3.38641
 49.95767	 3.99000	      -0.32691	3.38643
 50.03267	 4.00000	      -0.32690	3.38644
 50.10769	 4.01000	      -0.32688	3.38646
 50.18267	 4.02000	      -0.32689	3.38648
 50.25764	 4.03000	      -0.32710	3.38650
 50.33262	 4.04000	      -0.32723	3.38651
 50.40760	 4.05000	      -0.32756	3.38653
 50.48260	 4.06000	      -0.32750	3.38655
 50.55762	 4.07000	      -0.32750	3.38657
 50.63269	 4.08000	      -0.32749	3.38658
 50.70771	 4.09000	      -0.32757	3.38660
 50.78262	 4.10000	      -0.32793	3.38662
 50.85758	 4.11000	      -0.32801	3.38663
 50.93247	 4.12000	      -0.32809	3.38665
 51.00733	 4.13000	      -0.32825	3.38666
 51.08220	 4.14000	      -0.32848	3.38668
 51.15722	 4.15000	      -0.32869	3.38670
 51.23220	 4.16000	      -0.32892	3.38671
 51.30722	 4.17000	      -0.32913	3.38673
 51.38220	 4.18000	      -0.32934	3.38674
 51.45716	 4.19000	      -0.32930	3.38676
 51.53216	 4.20000	      -0.32943	3.38677
 51.60718	 4.21000	      -0.32951	3.38679
 51.68218	 4.22000	      -0.32982	3.38680
 51.75716	 4.23000	      -0.32998	3.38682
 51.83220	 4.24000	      -0.33001	3.38683
 51.90722	 4.25000	      -0.33009	3.38685
 51.98220	 4.26000	      -0.33020	3.38686
 52.05720	 4.27000	      -0.33057	3.38687
 52.13216	 4.28000	      -0.33071	3.38689
 52.20713	 4.29000	      -0.33097	3.38690
 52.28216	 4.30000	      -0.33118	3.38691
 52.35724	 4.31000	      -0.33140	3.38693
 52.43231	 4.32000	      -0.33129	3.38694
 52.50725	 4.33000	      -0.33145	3.38695
 52.58222	 4.34000	      -0.33157	3.38697
 52.65718	 4.35000	      -0.33153	3.38698
 52.73218	 4.36000	      -0.33157	3.38699
 52.80716	 4.37000	      -0.33174	3.38701
 52.88211	 4.38000	      -0.33227	3.38702
 52.95704	 4.39000	      -0.33234	3.38703
 53.03196	 4.40000	      -0.33250	3.38704
 53.10696	 4.41000	      -0.33255	3.38705
 53.18195	 4.42000	      -0.33274	3.38707
 53.25682	 4.43000	      -0.33292	3.38708
 53.33171	 4.44000	      -0.33317	3.38709
 53.40667	 4.45000	      -0.33316	3.38710
 53.48162	 4.46000	      -0.33324	3.38711
 53.55662	 4.47000	      -0.33337	3.38712
 53.63156	 4.48000	      -0.33355	3.38713
 53.70649	 4.49000	      -0.33368	3.38714
 53.78144	 4.50000	      -0.33382	3.38716
 53.85640	 4.51000	      -0.33395	3.38717
 53.93142	 4.52000	      -0.33411	3.38718
 54.00642	 4.53000	      -0.33426	3.38719
 54.08140	 4.54000	      -0.33445	3.38720
 54.15642	 4.55000	      -0.33473	3.38721
 54.23140	 4.56000	      -0.33507	3.38722
 54.30638	 4.57000	      -0.33530	3.38723
 54.38138	 4.58000	      -0.33527	3.38724
 54.45633	 4.59000	      -0.33513	3.38725
 54.53129	 4.60000	      -0.33522	3.38725
 54.60635	 4.61000	      -0.33533	3.38726
 54.68142	 4.62000	      -0.33552	3.38727
 54.75642	 4.63000	      -0.33573	3.38728
 54.83144	 4.64000	      -0.33603	3.38729
 54.90651	 4.65000	      -0.33617	3.38730
 54.98160	 4.66000	      -0.33638	3.38731
 55.05669	 4.67000	      -0.33656	3.38731
 55.13184	 4.68000	      -0.33671	3.38732
 55.20687	 4.69000	      -0.33693	3.38733
 55.28196	 4.70000	      -0.33703	3.38734
 55.35705	 4.71000	      -0.33698	3.38735
 55.43218	 4.72000	      -0.33706	3.38735
 55.50729	 4.73000	      -0.33726	3.38736
 55.58242	 4.74000	      -0.33741	3.38737
 55.65755	 4.75000	      -0.33780	3.38738
 55.73271	 4.76000	      -0.33776	3.38738
 55.80787	 4.77000	      -0.33781	3.38739
 55.88304	 4.78000	      -0.33788	3.38740
 55.95820	 4.79000	      -0.33803	3.38740
 56.03331	 4.80000	      -0.33827	3.38741
 56.10840	 4.81000	      -0.33842	3.38741
 56.18347	 4.82000	      -0.33863	3.38742
 56.25855	 4.83000	      -0.33878	3.38743
 56.33364	 4.84000	      -0.33899	3.38743
 56.40871	 4.85000	      -0.33904	3.38744
 56.48375	 4.86000	      -0.33907	3.38744
 56.55876	 4.87000	      -0.33915	3.38745
 56.63380	 4.88000	      -0.33928	3.38745
 56.70884	 4.89000	      -0.33939	3.38746
 56.78391	 4.90000	      -0.33949	3.38746
 56.85895	 4.91000	      -0.33955	3.38747
 56.93395	 4.92000	      -0.33951	3.38747
 57.00891	 4.93000	      -0.33951	3.38748
 57.08393	 4.94000	      -0.33962	3.38748
 57.15891	 4.95000	      -0.33972	3.38749
 57.23395	 4.96000	      -0.33982	3.38749
 57.30905	 4.97000	      -0.33995	3.38749
 57.38411	 4.98000	      -0.33998	3.38750
 57.45915	 4.99000	      -0.34004	3.38750
 57.53415	 5.00000	      -0.34009	3.38751
 57.60924	 5.01000	      -0.34035	3.38751
 57.68433	 5.02000	      -0.34062	3.38751
 57.75936	 5.03000	      -0.34082	3.38751
 57.83438	 5.04000	      -0.34105	3.38752
 57.90929	 5.05000	      -0.34118	3.38752
 57.98415	 5.06000	      -0.34111	3.38752
 58.05902	 5.07000	      -0.34109	3.38753
 58.13391	 5.08000	      -0.34127	3.38753
 58.20884	 5.09000	      -0.34132	3.38753
 58.28375	 5.10000	      -0.34149	3.38753
 58.35878	 5.11000	      -0.34171	3.38753
 58.43378	 5.12000	      -0.34191	3.38754
 58.50873	 5.13000	      -0.34194	3.38754
 58.58369	 5.14000	      -0.34192	3.38754
 58.65867	 5.15000	      -0.34189	3.38754
 58.73365	 5.16000	      -0.34187	3.38754
 58.80864	 5.17000	      -0.34214	3.38754
 58.88373	 5.18000	      -0.34224	3.38754
 58.95880	 5.19000	      -0.34217	3.38754
 59.03385	 5.20000	      -0.34214	3.38754
 59.10896	 5.21000	      -0.34249	3.38754
 59.18405	 5.22000	      -0.34252	3.38755
 59.25911	 5.23000	      -0.34269	3.38755
 59.33413	 5.24000	      -0.34284	3.38755
 59.40909	 5.25000	      -0.34310	3.38755
 59.48404	 5.26000	      -0.34325	3.38755
 59.55904	 5.27000	      -0.34343	3.38754
 59.63391	 5.28000	      -0.34365	3.38754
 59.70873	 5.29000	      -0.34385	3.38754
 59.78365	 5.30000	      -0.34381	3.38754
 59.85856	 5.31000	      -0.34401	3.38754
 59.93353	 5.32000	      -0.34424	3.38754
 60.00853	 5.33000	      -0.34429	3.38754
 60.08360	 5.34000	      -0.34453	3.38754
 60.15867	 5.35000	      -0.34467	3.38754
 60.23376	 5.36000	      -0.34457	3.38753
 60.30887	 5.37000	      -0.34458	3.38753
 60.38387	 5.38000	      -0.34480	3.38753
 60.45889	 5.39000	      -0.34474	3.38753
 60.53396	 5.40000	      -0.34484	3.38753
 60.60904	 5.41000	      -0.34503	3.38752
 60.68415	 5.42000	      -0.34517	3.38752
 60.75920	 5.43000	      -0.34529	3.38752
 60.83427	 5.44000	      -0.34525	3.38752
 60.90924	 5.45000	      -0.34540	3.38751
 60.98411	 5.46000	      -0.34551	3.38751
 61.05902	 5.47000	      -0.34568	3.38751
 61.13387	 5.48000	      -0.34577	3.38750
 61.20875	 5.49000	      -0.34594	3.38750
 61.28360	 5.50000	      -0.34603	3.38750
 61.35847	 5.51000	      -0.34618	3.38749
 61.43333	 5.52000	      -0.34634	3.38749
 61.50824	 5.53000	      -0.34641	3.38748
 61.58316	 5.54000	      -0.34655	3.38748
 61.65813	 5.55000	      -0.34662	3.38748
 61.73313	 5.56000	      -0.34657	3.38747
 61.80804	 5.57000	      -0.34671	3.38747
 61.88293	 5.58000	      -0.34702	3.38746
 61.95795	 5.59000	      -0.34702	3.38746
 62.03295	 5.60000	      -0.34704	3.38745
 62.10793	 5.61000	      -0.34711	3.38745
 62.18287	 5.62000	      -0.34737	3.38744
 62.25791	 5.63000	      -0.34751	3.38744
 62.33291	 5.64000	      -0.34765	3.38743
 62.40796	 5.65000	      -0.34782	3.38742
 62.48302	 5.66000	      -0.34818	3.38742
 62.55804	 5.67000	      -0.34835	3.38741
 62.63300	 5.68000	      -0.34841	3.38741
 62.70798	 5.69000	      -0.34870	3.38740
 62.78296	 5.70000	      -0.34870	3.38739
 62.85795	 5.71000	      -0.34891	3.38739
 62.93295	 5.72000	      -0.34900	3.38738
 63.00802	 5.73000	      -0.34917	3.38737
 63.08313	 5.74000	      -0.34939	3.38737
 63.15822	 5.75000	      -0.34949	3.38736
 63.23335	 5.76000	      -0.34953	3.38735
 63.30845	 5.77000	      -0.34965	3.38734
 63.38356	 5.78000	      -0.34970	3.38734
 63.45865	 5.79000	      -0.34982	3.38733
 63.53376	 5.80000	      -0.34997	3.38732
 63.60882	 5.81000	      -0.35012	3.38731
 63.68389	 5.82000	      -0.35014	3.38730
 63.75895	 5.83000	      -0.35016	3.38730
 63.83404	 5.84000	      -0.35021	3.38729
 63.90911	 5.85000	      -0.35040	3.38728
 63.98422	 5.86000	      -0.35050	3.38727
 64.05931	 5.87000	      -0.35057	3.38726
 64.13436	 5.88000	      -0.35072	3.38725
 64.20938	 5.89000	      -0.35079	3.38724
 64.28442	 5.90000	      -0.35087	3.38723
 64.35942	 5.91000	      -0.35099	3.38722
 64.43442	 5.92000	      -0.35111	3.38721
 64.50936	 5.93000	      -0.35109	3.38721
 64.58438	 5.94000	      -0.35111	3.38720
 64.65942	 5.95000	      -0.35121	3.38719
 64.73451	 5.96000	      -0.35133	3.38717
 64.80953	 5.97000	      -0.35141	3.38716
 64.88458	 5.98000	      -0.35148	3.38715
 64.95971	 5.99000	      -0.35158	3.38714
 65.03478	 6.00000	      -0.35181	3.38713
 65.10984	 6.01000	      -0.35194	3.38712
 65.18487	 6.02000	      -0.35203	3.38711
 65.25993	 6.03000	      -0.35206	3.38710
 65.33500	 6.04000	      -0.35212	3.38709
 65.41005	 6.05000	      -0.35223	3.38708
 65.48515	 6.06000	      -0.35232	3.38707
 65.56020	 6.07000	      -0.35240	3.38705
 65.63527	 6.08000	      -0.35254	3.38704
 65.71029	 6.09000	      -0.35267	3.38703
 65.78529	 6.10000	      -0.35291	3.38702
 65.86033	 6.11000	      -0.35304	3.38701
 65.93544	 6.12000	      -0.35313	3.38699
 66.01049	 6.13000	      -0.35309	3.38698
 66.08549	 6.14000	      -0.35308	3.38697
 66.16051	 6.15000	      -0.35334	3.38696
 66.23556	 6.16000	      -0.35325	3.38694
 66.31062	 6.17000	      -0.35315	3.38693
 66.38560	 6.18000	      -0.35309	3.38692
 66.46056	 6.19000	      -0.35305	3.38690
 66.53555	 6.20000	      -0.35312	3.38689
 66.61055	 6.21000	      -0.35318	3.38688
 66.68545	 6.22000	      -0.35334	3.38686
 66.76040	 6.23000	      -0.35361	3.38685
 66.83535	 6.24000	      -0.35350	3.38683
 66.91033	 6.25000	      -0.35349	3.38682
 66.98529	 6.26000	      -0.35348	3.38680
 67.06024	 6.27000	      -0.35355	3.38679
 67.13516	 6.28000	      -0.35370	3.38678
 67.21011	 6.29000	      -0.35368	3.38676
 67.28505	 6.30000	      -0.35369	3.38675
 67.36000	 6.31000	      -0.35376	3.38673
 67.43489	 6.32000	      -0.35374	3.38672
 67.50980	 6.33000	      -0.35382	3.38670
 67.58460	 6.34000	      -0.35382	3.38669
 67.65944	 6.35000	      -0.35383	3.38667
 67.73433	 6.36000	      -0.35396	3.38665
 67.80924	 6.37000	      -0.35403	3.38664
 67.88415	 6.38000	      -0.35438	3.38662
 67.95898	 6.39000	      -0.35441	3.38661
 68.03382	 6.40000	      -0.35442	3.38659
 68.10867	 6.41000	      -0.35459	3.38657
 68.18356	 6.42000	      -0.35471	3.38656
 68.25851	 6.43000	      -0.35481	3.38654
 68.33349	 6.44000	      -0.35485	3.38652
 68.40847	 6.45000	      -0.35480	3.38651
 68.48344	 6.46000	      -0.35475	3.38649
 68.55840	 6.47000	      -0.35502	3.38647
 68.63340	 6.48000	      -0.35509	3.38645
 68.70838	 6.49000	      -0.35526	3.38644
 68.78344	 6.50000	      -0.35525	3.38642
 68.85847	 6.51000	      -0.35538	3.38640
 68.93351	 6.52000	      -0.35542	3.38638
 69.00853	 6.53000	      -0.35556	3.38637
 69.08344	 6.54000	      -0.35565	3.38635
 69.15842	 6.55000	      -0.35579	3.38633
 69.23345	 6.56000	      -0.35587	3.38631
 69.30856	 6.57000	      -0.35603	3.38629
 69.38367	 6.58000	      -0.35612	3.38627
 69.45876	 6.59000	      -0.35623	3.38625
 69.53382	 6.60000	      -0.35615	3.38623
 69.60895	 6.61000	      -0.35621	3.38622
 69.68407	 6.62000	      -0.35622	3.38620
 69.75916	 6.63000	      -0.35636	3.38618
 69.83429	 6.64000	      -0.35635	3.38616
 69.90944	 6.65000	      -0.35623	3.38614
 69.98451	 6.66000	      -0.35620	3.38612
 70.05962	 6.67000	      -0.35621	3.38610
 70.13475	 6.68000	      -0.35618	3.38608
 70.20984	 6.69000	      -0.35610	3.38606
 70.28493	 6.70000	      -0.35607	3.38604
 70.35995	 6.71000	      -0.35608	3.38602
 70.43500	 6.72000	      -0.35610	3.38599
 70.51002	 6.73000	      -0.35609	3.38597
 70.58509	 6.74000	      -0.35606	3.38595
 70.66013	 6.75000	      -0.35600	3.38593
 70.73513	 6.76000	      -0.35584	3.38591
 70.81013	 6.77000	      -0.35581	3.38589
 70.88505	 6.78000	      -0.35580	3.38587
 70.96000	 6.79000	      -0.35575	3.38585
 71.03493	 6.80000	      -0.35582	3.38582
 71.10993	 6.81000	      -0.35587	3.38580
 71.18495	 6.82000	      -0.35590	3.38578
 71.25989	 6.83000	      -0.35593	3.38576
 71.33484	 6.84000	      -0.35603	3.38574
 71.40978	 6.85000	      -0.35606	3.38571
 71.48473	 6.86000	      -0.35611	3.38569
 71.55975	 6.87000	      -0.35604	3.38567
 71.63476	 6.88000	      -0.35607	3.38564
 71.70975	 6.89000	      -0.35627	3.38562
 71.78478	 6.90000	      -0.35623	3.38560
 71.85982	 6.91000	      -0.35613	3.38557
 71.93482	 6.92000	      -0.35624	3.38555
 72.00982	 6.93000	      -0.35629	3.38553
 72.08489	 6.94000	      -0.35634	3.38550
 72.15995	 6.95000	      -0.35637	3.38548
 72.23498	 6.96000	      -0.35645	3.38546
 72.31002	 6.97000	      -0.35653	3.38543
 72.38504	 6.98000	      -0.35661	3.38541
 72.46005	 6.99000	      -0.35672	3.38538
 72.53509	 7.00000	      -0.35677	3.38536
 72.61013	 7.01000	      -0.35680	3.38533
 72.68518	 7.02000	      -0.35678	3.38531
 72.76020	 7.03000	      -0.35689	3.38528
 72.83524	 7.04000	      -0.35687	3.38526
 72.91025	 7.05000	      -0.35680	3.38523
 72.98527	 7.06000	      -0.35681	3.38521
 73.06031	 7.07000	      -0.35683	3.38518
 73.13529	 7.08000	      -0.35681	3.38516
 73.21025	 7.09000	      -0.35676	3.38513
 73.28525	 7.10000	      -0.35681	3.38510
 73.36027	 7.11000	      -0.35682	3.38508
 73.43522	 7.12000	      -0.35689	3.38505
 73.51018	 7.13000	      -0.35679	3.38503
 73.58513	 7.14000	      -0.35672	3.38500
 73.66015	 7.15000	      -0.35665	3.38497
 73.73513	 7.16000	      -0.35658	3.38495
 73.81007	 7.17000	      -0.35658	3.38492
 73.88504	 7.18000	      -0.35656	3.38489
 73.96000	 7.19000	      -0.35651	3.38487
 74.03498	 7.20000	      -0.35652	3.38484
 74.11002	 7.21000	      -0.35657	3.38481
 74.18495	 7.22000	      -0.35654	3.38478
 74.25989	 7.23000	      -0.35653	3.38476
 74.33487	 7.24000	      -0.35643	3.38473
 74.40985	 7.25000	      -0.35633	3.38470
 74.48484	 7.26000	      -0.35635	3.38467
 74.55984	 7.27000	      -0.35632	3.38464
 74.63484	 7.28000	      -0.35622	3.38461
 74.70985	 7.29000	      -0.35611	3.38459
 74.78489	 7.30000	      -0.35609	3.38456
 74.85996	 7.31000	      -0.35596	3.38453
 74.93500	 7.32000	      -0.35586	3.38450
 75.01004	 7.33000	      -0.35568	3.38447
 75.08507	 7.34000	      -0.35551	3.38444
 75.16011	 7.35000	      -0.35534	3.38441
 75.23520	 7.36000	      -0.35516	3.38438
 75.31027	 7.37000	      -0.35499	3.38435
 75.38529	 7.38000	      -0.35470	3.38432
 75.46027	 7.39000	      -0.35446	3.38429
 75.53527	 7.40000	      -0.35429	3.38426
 75.61029	 7.41000	      -0.35419	3.38423
 75.68527	 7.42000	      -0.35402	3.38420
 75.76025	 7.43000	      -0.35377	3.38417
 75.83529	 7.44000	      -0.35355	3.38414
 75.91033	 7.45000	      -0.35333	3.38411
 75.98531	 7.46000	      -0.35292	3.38408
 76.06035	 7.47000	      -0.35268	3.38405
 76.13535	 7.48000	      -0.35252	3.38402
 76.21040	 7.49000	      -0.35218	3.38399
 76.28545	 7.50000	      -0.35182	3.38396
 76.36047	 7.51000	      -0.35145	3.38392
 76.43545	 7.52000	      -0.35107	3.38389
 76.51046	 7.53000	      -0.35053	3.38386
 76.58542	 7.54000	      -0.35000	3.38383
 76.66040	 7.55000	      -0.34961	3.38380
 76.73536	 7.56000	      -0.34925	3.38376
 76.81029	 7.57000	      -0.34901	3.38373
 76.88524	 7.58000	      -0.34867	3.38370
 76.96020	 7.59000	      -0.34826	3.38367
 77.03518	 7.60000	      -0.34761	3.38363
 77.11018	 7.61000	      -0.34724	3.38360
 77.18522	 7.62000	      -0.34689	3.38357
 77.26029	 7.63000	      -0.34633	3.38353
 77.33533	 7.64000	      -0.34561	3.38350
 77.41040	 7.65000	      -0.34514	3.38347
 77.48549	 7.66000	      -0.34465	3.38343
 77.56053	 7.67000	      -0.34411	3.38340
 77.63551	 7.68000	      -0.34357	3.38337
 77.71053	 7.69000	      -0.34312	3.38333
 77.78555	 7.70000	      -0.34258	3.38330
 77.86055	 7.71000	      -0.34231	3.38326
 77.93555	 7.72000	      -0.34169	3.38323
 78.01051	 7.73000	      -0.34096	3.38320
 78.08549	 7.74000	      -0.34035	3.38316
 78.16053	 7.75000	      -0.33980	3.38313
 78.23551	 7.76000	      -0.33924	3.38309
 78.31044	 7.77000	      -0.33861	3.38306
 78.38542	 7.78000	      -0.33789	3.38302
 78.46042	 7.79000	      -0.33718	3.38299
 78.53545	 7.80000	      -0.33643	3.38295
 78.61045	 7.81000	      -0.33558	3.38292
 78.68551	 7.82000	      -0.33490	3.38288
 78.76051	 7.83000	      -0.33420	3.38284
 78.83549	 7.84000	      -0.33355	3.38281
 78.91049	 7.85000	      -0.33277	3.38277
 78.98547	 7.86000	      -0.33207	3.38274
 79.06042	 7.87000	      -0.33137	3.38270
 79.13538	 7.88000	      -0.33059	3.38266
 79.21033	 7.89000	      -0.32973	3.38263
 79.28525	 7.90000	      -0.32883	3.38259
 79.36016	 7.91000	      -0.32787	3.38255
 79.43511	 7.92000	      -0.32702	3.38252
 79.51002	 7.93000	      -0.32604	3.38248
 79.58496	 7.94000	      -0.32504	3.38244
 79.65998	 7.95000	      -0.32409	3.38240
 79.73496	 7.96000	      -0.32303	3.38237
 79.80996	 7.97000	      -0.32201	3.38233
 79.88498	 7.98000	      -0.32098	3.38229
 79.96002	 7.99000	      -0.31990	3.38225
 80.03509	 8.00000	      -0.31891	3.38221
 80.11011	 8.01000	      -0.31796	3.38218
 80.18513	 8.02000	      -0.31688	3.38214
 80.26009	 8.03000	      -0.31588	3.38210
 80.33509	 8.04000	      -0.31480	3.38206
 80.41013	 8.05000	      -0.31375	3.38202
 80.48511	 8.06000	      -0.31275	3.38198
 80.56013	 8.07000	      -0.31175	3.38194
 80.63515	 8.08000	      -0.31062	3.38190
 80.71020	 8.09000	      -0.30945	3.38187
 80.78525	 8.10000	      -0.30827	3.38183
 80.86029	 8.11000	      -0.30707	3.38179
 80.93536	 8.12000	      -0.30577	3.38175
 81.01040	 8.13000	      -0.30442	3.38171
 81.08547	 8.14000	      -0.30313	3.38167
 81.16055	 8.15000	      -0.30185	3.38163
 81.23564	 8.16000	      -0.30053	3.38159
 81.31067	 8.17000	      -0.29958	3.38155
 81.38571	 8.18000	      -0.29811	3.38151
 81.46073	 8.19000	      -0.29642	3.38146
 81.53575	 8.20000	      -0.29517	3.38142
 81.61084	 8.21000	      -0.29392	3.38138
 81.68591	 8.22000	      -0.29253	3.38134
 81.76093	 8.23000	      -0.29108	3.38130
 81.83598	 8.24000	      -0.28942	3.38126
 81.91100	 8.25000	      -0.28785	3.38122
 81.98600	 8.26000	      -0.28635	3.38118
 82.06105	 8.27000	      -0.28485	3.38113
 82.13609	 8.28000	      -0.28310	3.38109
 82.21113	 8.29000	      -0.28147	3.38105
 82.28620	 8.30000	      -0.27999	3.38101
 82.36129	 8.31000	      -0.27831	3.38097
 82.43638	 8.32000	      -0.27656	3.38092
 82.51138	 8.33000	      -0.27486	3.38088
 82.58642	 8.34000	      -0.27291	3.38084
 82.66140	 8.35000	      -0.27113	3.38080
 82.73640	 8.36000	      -0.26931	3.38075
 82.81138	 8.37000	      -0.26745	3.38071
 82.88636	 8.38000	      -0.26570	3.38067
 82.96135	 8.39000	      -0.26388	3.38062
 83.03636	 8.40000	      -0.26197	3.38058
 83.11138	 8.41000	      -0.25991	3.38054
 83.18636	 8.42000	      -0.25788	3.38049
 83.26131	 8.43000	      -0.25585	3.38045
 83.33635	 8.44000	      -0.25384	3.38041
 83.41144	 8.45000	      -0.25185	3.38036
 83.48647	 8.46000	      -0.24972	3.38032
 83.56153	 8.47000	      -0.24744	3.38027
 83.63649	 8.48000	      -0.24516	3.38023
 83.71147	 8.49000	      -0.24290	3.38018
 83.78649	 8.50000	      -0.24067	3.38014
 83.86145	 8.51000	      -0.23846	3.38009
 83.93645	 8.52000	      -0.23631	3.38005
 84.01149	 8.53000	      -0.23410	3.38000
 84.08638	 8.54000	      -0.23176	3.37996
 84.16136	 8.55000	      -0.22932	3.37991
 84.23627	 8.56000	      -0.22683	3.37987
 84.31118	 8.57000	      -0.22429	3.37982
 84.38609	 8.58000	      -0.22182	3.37978
 84.46102	 8.59000	      -0.21931	3.37973
 84.53596	 8.60000	      -0.21655	3.37968
 84.61091	 8.61000	      -0.21416	3.37964
 84.68585	 8.62000	      -0.21132	3.37959
 84.76078	 8.63000	      -0.20851	3.37955
 84.83578	 8.64000	      -0.20594	3.37950
 84.91078	 8.65000	      -0.20308	3.37945
 84.98580	 8.66000	      -0.20019	3.37941
 85.06082	 8.67000	      -0.19722	3.37936
 85.13585	 8.68000	      -0.19429	3.37931
 85.21096	 8.69000	      -0.19115	3.37926
 85.28613	 8.70000	      -0.18819	3.37922
 85.36124	 8.71000	      -0.18524	3.37917
 85.43624	 8.72000	      -0.18192	3.37912
 85.51131	 8.73000	      -0.17862	3.37907
 85.58642	 8.74000	      -0.17528	3.37903
 85.66151	 8.75000	      -0.17203	3.37898
 85.73664	 8.76000	      -0.16868	3.37893
 85.81175	 8.77000	      -0.16514	3.37888
 85.88680	 8.78000	      -0.16149	3.37883
 85.96187	 8.79000	      -0.15792	3.37878
 86.03696	 8.80000	      -0.15435	3.37874
 86.11211	 8.81000	      -0.15076	3.37869
 86.18716	 8.82000	      -0.14687	3.37864
 86.26224	 8.83000	      -0.14298	3.37859
 86.33735	 8.84000	      -0.13884	3.37854
 86.41245	 8.85000	      -0.13463	3.37849
 86.48749	 8.86000	      -0.13062	3.37844
 86.56255	 8.87000	      -0.12653	3.37839
 86.63760	 8.88000	      -0.12222	3.37834
 86.71264	 8.89000	      -0.11759	3.37829
 86.78767	 8.90000	      -0.11313	3.37824
 86.86276	 8.91000	      -0.10864	3.37819
 86.93778	 8.92000	      -0.10386	3.37814
 87.01280	 8.93000	-9.907862e-002	3.37809
 87.08780	 8.94000	-9.428209e-002	3.37804
 87.16282	 8.95000	-8.938636e-002	3.37799
 87.23778	 8.96000	-8.421741e-002	3.37794
 87.31262	 8.97000	-7.904862e-002	3.37789
 87.38749	 8.98000	-7.373141e-002	3.37784
 87.46238	 8.99000	-6.819082e-002	3.37779
 87.53725	 9.00000	-6.260021e-002	3.37773
 87.61211	 9.01000	-5.693610e-002	3.37768
 87.68696	 9.02000	-5.124607e-002	3.37763
 87.76185	 9.03000	-4.533362e-002	3.37758
 87.83675	 9.04000	-3.929650e-002	3.37753
 87.91165	 9.05000	-3.318554e-002	3.37748
 87.98656	 9.06000	-2.672698e-002	3.37742
 88.06153	 9.07000	-2.030653e-002	3.37737
 88.13642	 9.08000	-1.366116e-002	3.37732
 88.21133	 9.09000	-6.866307e-003	3.37727
 88.28629	 9.10000	-2.267528e-005	3.37722
 88.36125	 9.11000	 7.242601e-003	3.37716
 88.43627	 9.12000	 1.453321e-002	3.37711
 88.51129	 9.13000	 2.209621e-002	3.37706
 88.58627	 9.14000	 2.983350e-002	3.37700
 88.66131	 9.15000	 3.754627e-002	3.37695
 88.73635	 9.16000	 4.555590e-002	3.37690
 88.81140	 9.17000	 5.364044e-002	3.37684
 88.88645	 9.18000	 6.214705e-002	3.37679
 88.96144	 9.19000	 7.055384e-002	3.37674
 89.03644	 9.20000	 7.952383e-002	3.37668
 89.11145	 9.21000	 8.865890e-002	3.37663
 89.18645	 9.22000	 9.794325e-002	3.37657
 89.26145	 9.23000	       0.10743	3.37652
 89.33653	 9.24000	       0.11693	3.37647
 89.41162	 9.25000	       0.12699	3.37641
 89.48669	 9.26000	       0.13707	3.37636
 89.56173	 9.27000	       0.14764	3.37630
 89.63678	 9.28000	       0.15839	3.37625
 89.71180	 9.29000	       0.16936	3.37619
 89.78682	 9.30000	       0.18090	3.37614
 89.86176	 9.31000	       0.19244	3.37608
 89.93667	 9.32000	       0.20421	3.37603
 90.01158	 9.33000	       0.21652	3.37597
 90.08653	 9.34000	       0.22915	3.37592
 90.16147	 9.35000	       0.24203	3.37586
 90.23647	 9.36000	       0.25528	3.37580
 90.31140	 9.37000	       0.26890	3.37575
 90.38631	 9.38000	       0.28268	3.37569
 90.46120	 9.39000	       0.29670	3.37564
 90.53607	 9.40000	       0.31104	3.37558
 90.61102	 9.41000	       0.32620	3.37552
 90.68598	 9.42000	       0.34186	3.37547
 90.76089	 9.43000	       0.35747	3.37541
 90.83580	 9.44000	       0.37315	3.37535
 90.91076	 9.45000	       0.38933	3.37529
 90.98575	 9.46000	       0.40638	3.37524
 91.06078	 9.47000	       0.42373	3.37518
 91.13578	 9.48000	       0.44115	3.37512
 91.21078	 9.49000	       0.45880	3.37507
 91.28585	 9.50000	       0.47696	3.37501
 91.36091	 9.51000	       0.49618	3.37495
 91.43600	 9.52000	       0.51575	3.37489
 91.51111	 9.53000	       0.53532	3.37483
 91.58620	 9.54000	       0.55558	3.37478
 91.66127	 9.55000	       0.57617	3.37472
 91.73640	 9.56000	       0.59701	3.37466
 91.81158	 9.57000	       0.61819	3.37460
 91.88682	 9.58000	       0.64049	3.37454
 91.96200	 9.59000	       0.66321	3.37448
 92.03725	 9.60000	       0.68636	3.37442
 92.11253	 9.61000	       0.70979	3.37436
 92.18773	 9.62000	       0.73344	3.37430
 92.26298	 9.63000	       0.75771	3.37424
 92.33815	 9.64000	       0.78250	3.37418
 92.41336	 9.65000	       0.80783	3.37412
 92.48853	 9.66000	       0.83330	3.37407
 92.56373	 9.67000	       0.85913	3.37400
 92.63895	 9.68000	       0.88613	3.37394
 92.71409	 9.69000	       0.91358	3.37388
 92.78920	 9.70000	       0.94103	3.37382
 92.86433	 9.71000	       0.96871	3.37376
 92.93944	 9.72000	       0.99668	3.37370
 93.01451	 9.73000	       1.02502	3.37364
 93.08962	 9.74000	       1.05372	3.37358
 93.16469	 9.75000	       1.08327	3.37352
 93.23975	 9.76000	       1.11391	3.37346
 93.31480	 9.77000	       1.14356	3.37340
 93.38978	 9.78000	       1.17329	3.37334
 93.46469	 9.79000	       1.20321	3.37328
 93.53964	 9.80000	       1.23329	3.37321
 93.61462	 9.81000	       1.26361	3.37315
 93.68958	 9.82000	       1.29468	3.37309
 93.76451	 9.83000	       1.32518	3.37303
 93.83949	 9.84000	       1.35558	3.37297
 93.91440	 9.85000	       1.38611	3.37290
 93.98933	 9.86000	       1.41646	3.37284
 94.06425	 9.87000	       1.44682	3.37278
 94.13916	 9.88000	       1.47693	3.37272
 94.21407	 9.89000	       1.50642	3.37266
 94.28902	 9.90000	       1.53581	3.37259
 94.36391	 9.91000	       1.56496	3.37253
 94.43884	 9.92000	       1.59351	3.37247
 94.51384	 9.93000	       1.62177	3.37240
 94.58873	 9.94000	       1.64930	3.37234
 94.66365	 9.95000	       1.67622	3.37228
 94.73858	 9.96000	       1.70244	3.37221
 94.81353	 9.97000	       1.72795	3.37215
 94.88853	 9.98000	       1.75276	3.37209
 94.96345	 9.99000	       1.77683	3.37202
 95.03844	10.00000	       1.79993	3.37196
 95.11338	10.01000	       1.82196	3.37189
 95.18827	10.02000	       1.84288	3.37183
 95.26316	10.03000	       1.86297	3.37177
 95.33807	10.04000	       1.88158	3.37170
 95.41304	10.05000	       1.89937	3.37164
 95.48802	10.06000	       1.91595	3.37157
 95.56300	10.07000	       1.93116	3.37151
 95.63796	10.08000	       1.94503	3.37144
 95.71289	10.09000	       1.95739	3.37138
 95.78785	10.10000	       1.96864	3.37131
 95.86276	10.11000	       1.97812	3.37125
 95.93764	10.12000	       1.98676	3.37118
 96.01251	10.13000	       1.99371	3.37111
 96.08740	10.14000	       1.99914	3.37105
 96.16231	10.15000	       2.00285	3.37098
 96.23722	10.16000	       2.00518	3.37092
 96.31202	10.17000	       2.00567	3.37085
 96.38682	10.18000	       2.00514	3.37079
 96.46160	10.19000	       2.00302	3.37072
 96.53635	10.20000	       1.99951	3.37065
 96.61111	10.21000	       1.99429	3.37059
 96.68595	10.22000	       1.98793	3.37052
 96.76076	10.23000	       1.97980	3.37045
 96.83555	10.24000	       1.97036	3.37039
 96.91035	10.25000	       1.95966	3.37032
 96.98509	10.26000	       1.94759	3.37025
 97.05985	10.27000	       1.93407	3.37018
 97.13465	10.28000	       1.91939	3.37012
 97.20945	10.29000	       1.90322	3.37005
 97.28429	10.30000	       1.88586	3.36998
 97.35915	10.31000	       1.86733	3.36991
 97.43395	10.32000	       1.84805	3.36985
 97.50875	10.33000	       1.82773	3.36978
 97.58360	10.34000	       1.80595	3.36971
 97.65838	10.35000	       1.78362	3.36964
 97.73320	10.36000	       1.76012	3.36957
 97.80807	10.37000	       1.73590	3.36951
 97.88295	10.38000	       1.71083	3.36944
 97.95789	10.39000	       1.68539	3.36937
 98.03285	10.40000	       1.65943	3.36930
 98.10782	10.41000	       1.63267	3.36923
 98.18275	10.42000	       1.60536	3.36916
 98.25764	10.43000	       1.57780	3.36909
 98.33260	10.44000	       1.54967	3.36902
 98.40760	10.45000	       1.52144	3.36895
 98.48262	10.46000	       1.49310	3.36888
 98.55765	10.47000	       1.46455	3.36881
 98.63273	10.48000	       1.43562	3.36874
 98.70784	10.49000	       1.40686	3.36867
 98.78291	10.50000	       1.37798	3.36860
 98.85798	10.51000	       1.34919	3.36853
 98.93304	10.52000	       1.32046	3.36846
 99.00807	10.53000	       1.29175	3.36839
 99.08316	10.54000	       1.26311	3.36832
 99.15824	10.55000	       1.23478	3.36825
 99.23331	10.56000	       1.20694	3.36818
 99.30835	10.57000	       1.17917	3.36811
 99.38342	10.58000	       1.15152	3.36803
 99.45849	10.59000	       1.12425	3.36796
 99.53358	10.60000	       1.09727	3.36789
 99.60864	10.61000	       1.07092	3.36782
 99.68369	10.62000	       1.04466	3.36775
 99.75878	10.63000	       1.01868	3.36768
 99.83384	10.64000	       0.99343	3.36760
 99.90889	10.65000	       0.96834	3.36753
 99.98396	10.66000	       0.94352	3.36746
100.05896	10.67000	       0.91910	3.36739
100.13404	10.68000	       0.89557	3.36731
100.20900	10.69000	       0.87254	3.36724
100.28411	10.70000	       0.85010	3.36717
100.35920	10.71000	       0.82749	3.36710
100.43427	10.72000	       0.80523	3.36702
100.50933	10.73000	       0.78356	3.36695
100.58442	10.74000	       0.76308	3.36688
100.65949	10.75000	       0.74313	3.36680
100.73453	10.76000	       0.72297	3.36673
100.80955	10.77000	       0.70329	3.36666
100.88458	10.78000	       0.68405	3.36658
100.95964	10.79000	       0.66508	3.36651
101.03471	10.80000	       0.64648	3.36643
101.10984	10.81000	       0.62893	3.36636
101.18496	10.82000	       0.61205	3.36628
101.26009	10.83000	       0.59492	3.36621
101.33516	10.84000	       0.57792	3.36614
101.41025	10.85000	       0.56163	3.36606
101.48535	10.86000	       0.54602	3.36599
101.56040	10.87000	       0.53078	3.36591
101.63549	10.88000	       0.51576	3.36584
101.71055	10.89000	       0.50104	3.36576
101.78564	10.90000	       0.48676	3.36569
101.86071	10.91000	       0.47311	3.36561
101.93580	10.92000	       0.45935	3.36554
102.01082	10.93000	       0.44620	3.36546
102.08585	10.94000	       0.43344	3.36538
102.16095	10.95000	       0.42098	3.36531
102.23604	10.96000	       0.40867	3.36523
102.31105	10.97000	       0.39692	3.36516
102.38602	10.98000	       0.38513	3.36508
102.46104	10.99000	       0.37388	3.36500
102.53605	11.00000	       0.36276	3.36493
102.61105	11.01000	       0.35181	3.36485
102.68607	11.02000	       0.34176	3.36477
102.76107	11.03000	       0.33173	3.36470
102.83613	11.04000	       0.32158	3.36462
102.91120	11.05000	       0.31187	3.36454
102.98622	11.06000	       0.30236	3.36447
103.06122	11.07000	       0.29325	3.36439
103.13625	11.08000	       0.28446	3.36431
103.21127	11.09000	       0.27566	3.36423
103.28627	11.10000	       0.26717	3.36416
103.36136	11.11000	       0.25888	3.36408
103.43638	11.12000	       0.25083	3.36400
103.51140	11.13000	       0.24288	3.36392
103.58640	11.14000	       0.23508	3.36384
103.66140	11.15000	       0.22766	3.36377
103.73644	11.16000	       0.22031	3.36369
103.81145	11.17000	       0.21313	3.36361
103.88644	11.18000	       0.20603	3.36353
103.96147	11.19000	       0.19930	3.36345
104.03647	11.20000	       0.19254	3.36337
104.11147	11.21000	       0.18624	3.36329
104.18642	11.22000	       0.17975	3.36321
104.26135	11.23000	       0.17356	3.36314
104.33629	11.24000	       0.16754	3.36306
104.41129	11.25000	       0.16151	3.36298
104.48635	11.26000	       0.15572	3.36290
104.56136	11.27000	       0.14989	3.36282
104.63642	11.28000	       0.14432	3.36274
104.71149	11.29000	       0.13932	3.36266
104.78656	11.30000	       0.13437	3.36258
104.86164	11.31000	       0.12914	3.36250
104.93660	11.32000	       0.12391	3.36242
105.01167	11.33000	       0.11891	3.36234
105.08673	11.34000	       0.11416	3.36226
105.16171	11.35000	       0.10946	3.36218
105.23673	11.36000	       0.10496	3.36209
105.31173	11.37000	       0.10031	3.36201
105.38676	11.38000	 9.590751e-002	3.36193
105.46169	11.39000	 9.167961e-002	3.36185
105.53671	11.40000	 8.737718e-002	3.36177
105.61169	11.41000	 8.317377e-002	3.36169
105.68667	11.42000	 7.924389e-002	3.36161
105.76167	11.43000	 7.536360e-002	3.36153
105.83664	11.44000	 7.160788e-002	3.36144
105.91167	11.45000	 6.767712e-002	3.36136
105.98671	11.46000	 6.421970e-002	3.36128
106.06175	11.47000	 6.057608e-002	3.36120
106.13682	11.48000	 5.697997e-002	3.36112
106.21184	11.49000	 5.340860e-002	3.36103
106.28691	11.50000	 4.988682e-002	3.36095
106.36202	11.51000	 4.651453e-002	3.36087
106.43711	11.52000	 4.324035e-002	3.36079
106.51215	11.53000	 3.996765e-002	3.36070
106.58716	11.54000	 3.679403e-002	3.36062
106.66215	11.55000	 3.384333e-002	3.36054
106.73711	11.56000	 3.086857e-002	3.36045
106.81207	11.57000	 2.799292e-002	3.36037
106.88704	11.58000	 2.506766e-002	3.36029
106.96202	11.59000	 2.221629e-002	3.36020
107.03700	11.60000	 1.944424e-002	3.36012
107.11195	11.61000	 1.667464e-002	3.36004
107.18691	11.62000	 1.397992e-002	3.35995
107.26187	11.63000	 1.141022e-002	3.35987
107.33684	11.64000	 8.889858e-003	3.35978
107.41176	11.65000	 6.394598e-003	3.35970
107.48678	11.66000	 3.798953e-003	3.35962
107.56178	11.67000	 1.477416e-003	3.35953
107.63676	11.68000	-9.192672e-004	3.35945
107.71178	11.69000	-3.265617e-003	3.35936
107.78676	11.70000	-5.562927e-003	3.35928
107.86173	11.71000	-8.009450e-003	3.35919
107.93669	11.72000	-1.043087e-002	3.35911
108.01165	11.73000	-1.260324e-002	3.35902
108.08653	11.74000	-1.484801e-002	3.35894
108.16149	11.75000	-1.694379e-002	3.35885
108.23649	11.76000	-1.893940e-002	3.35877
108.31144	11.77000	-2.111011e-002	3.35868
108.38640	11.78000	-2.313149e-002	3.35859
108.46135	11.79000	-2.510250e-002	3.35851
108.53635	11.80000	-2.712311e-002	3.35842
108.61136	11.81000	-2.919494e-002	3.35834
108.68638	11.82000	-3.116627e-002	3.35825
108.76136	11.83000	-3.298888e-002	3.35816
108.83638	11.84000	-3.488633e-002	3.35808
108.91136	11.85000	-3.663374e-002	3.35799
108.98635	11.86000	-3.833141e-002	3.35790
109.06131	11.87000	-4.002195e-002	3.35782
109.13629	11.88000	-4.178482e-002	3.35773
109.21135	11.89000	-4.379628e-002	3.35764
109.28636	11.90000	-4.541051e-002	3.35756
109.36133	11.91000	-4.692417e-002	3.35747
109.43633	11.92000	-4.851299e-002	3.35738
109.51131	11.93000	-5.010158e-002	3.35729
109.58624	11.94000	-5.166566e-002	3.35721
109.66124	11.95000	-5.327966e-002	3.35712
109.73620	11.96000	-5.471931e-002	3.35703
109.81120	11.97000	-5.615936e-002	3.35694
109.88627	11.98000	-5.774868e-002	3.35685
109.96133	11.99000	-5.916364e-002	3.35677
110.03635	12.00000	-6.060436e-002	3.35668
110.11135	12.01000	-6.212075e-002	3.35659
110.18640	12.02000	-6.346211e-002	3.35650
110.26142	12.03000	-6.485404e-002	3.35641
110.33644	12.04000	-6.622177e-002	3.35632
110.41145	12.05000	-6.753941e-002	3.35623
110.48645	12.06000	-6.898142e-002	3.35614
110.56142	12.07000	-7.032347e-002	3.35605
110.63635	12.08000	-7.124217e-002	3.35597
110.71131	12.09000	-7.260961e-002	3.35588
110.78633	12.10000	-7.387774e-002	3.35579
110.86138	12.11000	-7.531882e-002	3.35570
110.93644	12.12000	-7.651263e-002	3.35561
111.01144	12.13000	-7.770772e-002	3.35552
111.08645	12.14000	-7.893855e-002	3.35543
111.16153	12.15000	-8.016878e-002	3.35534
111.23655	12.16000	-8.124981e-002	3.35525
111.31155	12.17000	-8.228104e-002	3.35516
111.38658	12.18000	-8.346193e-002	3.35507
111.46169	12.19000	-8.441881e-002	3.35497
111.53678	12.20000	-8.535047e-002	3.35488
111.61185	12.21000	-8.650695e-002	3.35479
111.68693	12.22000	-8.773765e-002	3.35470
111.76207	12.23000	-8.879354e-002	3.35461
111.83718	12.24000	-8.990033e-002	3.35452
111.91222	12.25000	-9.098159e-002	3.35443
111.98735	12.26000	-9.203896e-002	3.35434
112.06242	12.27000	-9.304638e-002	3.35425
112.13749	12.28000	-9.397920e-002	3.35415
112.21256	12.29000	-9.488745e-002	3.35406
112.28764	12.30000	-9.582104e-002	3.35397
112.36264	12.31000	-9.680423e-002	3.35388
112.43767	12.32000	-9.776253e-002	3.35379
112.51273	12.33000	-9.872057e-002	3.35369
112.58776	12.34000	-9.967898e-002	3.35360
112.66278	12.35000	      -0.10054	3.35351
112.73776	12.36000	      -0.10140	3.35342
112.81271	12.37000	      -0.10238	3.35332
112.88762	12.38000	      -0.10344	3.35323
112.96255	12.39000	      -0.10395	3.35314
113.03753	12.40000	      -0.10473	3.35304
113.11253	12.41000	      -0.10543	3.35295
113.18747	12.42000	      -0.10631	3.35286
113.26245	12.43000	      -0.10706	3.35276
113.33738	12.44000	      -0.10759	3.35267
113.41235	12.45000	      -0.10869	3.35258
113.48731	12.46000	      -0.10939	3.35248
113.56225	12.47000	      -0.11022	3.35239
113.63718	12.48000	      -0.11094	3.35230
113.71211	12.49000	      -0.11174	3.35220
113.78702	12.50000	      -0.11252	3.35211
113.86189	12.51000	      -0.11347	3.35201
113.93687	12.52000	      -0.11440	3.35192
114.01175	12.53000	      -0.11520	3.35183
114.08665	12.54000	      -0.11600	3.35173
114.16164	12.55000	      -0.11672	3.35164
114.23660	12.56000	      -0.11736	3.35154
114.31155	12.57000	      -0.11813	3.35145
114.38653	12.58000	      -0.11883	3.35135
114.46147	12.59000	      -0.11955	3.35126
114.53649	12.60000	      -0.12037	3.35116
114.61149	12.61000	      -0.12114	3.35107
114.68653	12.62000	      -0.12183	3.35097
114.76160	12.63000	      -0.12235	3.35087
114.83667	12.64000	      -0.12297	3.35078
114.91180	12.65000	      -0.12374	3.35068
114.98689	12.66000	      -0.12432	3.35059
115.06193	12.67000	      -0.12522	3.35049
115.13695	12.68000	      -0.12598	3.35039
115.21196	12.69000	      -0.12654	3.35030
115.28698	12.70000	      -0.12708	3.35020
115.36198	12.71000	      -0.12776	3.35010
115.43705	12.72000	      -0.12838	3.35001
115.51213	12.73000	      -0.12904	3.34991
115.58718	12.74000	      -0.12970	3.34981
115.66222	12.75000	      -0.13041	3.34972
115.73722	12.76000	      -0.13112	3.34962
115.81224	12.77000	      -0.13165	3.34952
115.88724	12.78000	      -0.13229	3.34942
115.96227	12.79000	      -0.13300	3.34933
116.03727	12.80000	      -0.13351	3.34923
116.11229	12.81000	      -0.13414	3.34913
116.18727	12.82000	      -0.13505	3.34903
116.26231	12.83000	      -0.13561	3.34893
116.33727	12.84000	      -0.13624	3.34884
116.41225	12.85000	      -0.13685	3.34874
116.48731	12.86000	      -0.13759	3.34864
116.56229	12.87000	      -0.13847	3.34854
116.63727	12.88000	      -0.13913	3.34844
116.71224	12.89000	      -0.13941	3.34834
116.78720	12.90000	      -0.14042	3.34825
116.86211	12.91000	      -0.14081	3.34815
116.93698	12.92000	      -0.14169	3.34805
117.01184	12.93000	      -0.14240	3.34795
117.08676	12.94000	      -0.14319	3.34785
117.16171	12.95000	      -0.14398	3.34775
117.23667	12.96000	      -0.14477	3.34765
117.31160	12.97000	      -0.14547	3.34755
117.38656	12.98000	      -0.14616	3.34745
117.46147	12.99000	      -0.14690	3.34735
117.53635	13.00000	      -0.14749	3.34725
117.61124	13.01000	      -0.14823	3.34715
117.68620	13.02000	      -0.14903	3.34705
117.76113	13.03000	      -0.14977	3.34695
117.83611	13.04000	      -0.15064	3.34685
117.91105	13.05000	      -0.15155	3.34675
117.98596	13.06000	      -0.15250	3.34665
118.06087	13.07000	      -0.15332	3.34655
118.13580	13.08000	      -0.15415	3.34645
118.21076	13.09000	      -0.15512	3.34635
118.28565	13.10000	      -0.15607	3.34625
118.36062	13.11000	      -0.15704	3.34615
118.43560	13.12000	      -0.15799	3.34605
118.51060	13.13000	      -0.15894	3.34594
118.58560	13.14000	      -0.15998	3.34584
118.66056	13.15000	      -0.16098	3.34574
118.73556	13.16000	      -0.16198	3.34564
118.81056	13.17000	      -0.16298	3.34554
118.88564	13.18000	      -0.16420	3.34544
118.96076	13.19000	      -0.16535	3.34533
119.03589	13.20000	      -0.16653	3.34523
119.11104	13.21000	      -0.16770	3.34513
119.18605	13.22000	      -0.16900	3.34503
119.26107	13.23000	      -0.17021	3.34492
119.33613	13.24000	      -0.17146	3.34482
119.41120	13.25000	      -0.17278	3.34472
119.48627	13.26000	      -0.17416	3.34462
119.56131	13.27000	      -0.17564	3.34451
119.63638	13.28000	      -0.17709	3.34441
119.71142	13.29000	      -0.17839	3.34431
119.78645	13.30000	      -0.18010	3.34420
119.86151	13.31000	      -0.18167	3.34410
119.93656	13.32000	      -0.18318	3.34400
120.01165	13.33000	      -0.18480	3.34389
120.08667	13.34000	      -0.18654	3.34379
120.16175	13.35000	      -0.18829	3.34368
120.23675	13.36000	      -0.19012	3.34358
120.31178	13.37000	      -0.19193	3.34348
120.38680	13.38000	      -0.19386	3.34337
120.46180	13.39000	      -0.19574	3.34327
120.53685	13.40000	      -0.19792	3.34316
120.61184	13.41000	      -0.20010	3.34306
120.68691	13.42000	      -0.20221	3.34295
120.76195	13.43000	      -0.20447	3.34285
120.83698	13.44000	      -0.20683	3.34274
120.91200	13.45000	      -0.20918	3.34264
120.98696	13.46000	      -0.21144	3.34253
121.06198	13.47000	      -0.21393	3.34243
121.13696	13.48000	      -0.21685	3.34232
121.21202	13.49000	      -0.21964	3.34222
121.28707	13.50000	      -0.22235	3.34211
121.36213	13.51000	      -0.22507	3.34201
121.43713	13.52000	      -0.22788	3.34190
121.51215	13.53000	      -0.23103	3.34180
121.58718	13.54000	      -0.23417	3.34169
121.66220	13.55000	      -0.23759	3.34158
121.73718	13.56000	      -0.24088	3.34148
121.81220	13.57000	      -0.24420	3.34137
121.88720	13.58000	      -0.24762	3.34126
121.96224	13.59000	      -0.25113	3.34116
122.03729	13.60000	      -0.25483	3.34105
122.11233	13.61000	      -0.25858	3.34095
122.18740	13.62000	      -0.26258	3.34084
122.26242	13.63000	      -0.26654	3.34073
122.33749	13.64000	      -0.27061	3.34062
122.41251	13.65000	      -0.27462	3.34052
122.48756	13.66000	      -0.27857	3.34041
122.56255	13.67000	      -0.28277	3.34030
122.63758	13.68000	      -0.28700	3.34019
122.71256	13.69000	      -0.29118	3.34009
122.78756	13.70000	      -0.29554	3.33998
122.86253	13.71000	      -0.29974	3.33987
122.93753	13.72000	      -0.30407	3.33976
123.01253	13.73000	      -0.30817	3.33966
123.08747	13.74000	      -0.31216	3.33955
123.16244	13.75000	      -0.31599	3.33944
123.23736	13.76000	      -0.31983	3.33933
123.31231	13.77000	      -0.32352	3.33922
123.38729	13.78000	      -0.32718	3.33911
123.46224	13.79000	      -0.33079	3.33901
123.53716	13.80000	      -0.33400	3.33890
123.61209	13.81000	      -0.33707	3.33879
123.68705	13.82000	      -0.34043	3.33868
123.76196	13.83000	      -0.34364	3.33857
123.83693	13.84000	      -0.34643	3.33846
123.91187	13.85000	      -0.34901	3.33835
123.98678	13.86000	      -0.35157	3.33824
124.06165	13.87000	      -0.35412	3.33813
124.13653	13.88000	      -0.35653	3.33802
124.21142	13.89000	      -0.35850	3.33791
124.28636	13.90000	      -0.36044	3.33780
124.36136	13.91000	      -0.36198	3.33769
124.43629	13.92000	      -0.36353	3.33758
124.51127	13.93000	      -0.36467	3.33747
124.58625	13.94000	      -0.36576	3.33736
124.66124	13.95000	      -0.36650	3.33725
124.73618	13.96000	      -0.36684	3.33714
124.81113	13.97000	      -0.36700	3.33703
124.88613	13.98000	      -0.36661	3.33692
124.96107	13.99000	      -0.36617	3.33681
125.03600	14.00000	      -0.36511	3.33670
125.11096	14.01000	      -0.36365	3.33659
125.18596	14.02000	      -0.36196	3.33648
125.26098	14.03000	      -0.35930	3.33637
125.33607	14.04000	      -0.35624	3.33625
125.41107	14.05000	      -0.35282	3.33614
125.48605	14.06000	      -0.34873	3.33603
125.56113	14.07000	      -0.34418	3.33592
125.63618	14.08000	      -0.33893	3.33581
125.71125	14.09000	      -0.33341	3.33570
125.78636	14.10000	      -0.32791	3.33558
125.86140	14.11000	      -0.32133	3.33547
125.93640	14.12000	      -0.31448	3.33536
126.01149	14.13000	      -0.30750	3.33525
126.08658	14.14000	      -0.30027	3.33513
126.16171	14.15000	      -0.29303	3.33502
126.23685	14.16000	      -0.28573	3.33491
126.31195	14.17000	      -0.27857	3.33479
126.38702	14.18000	      -0.27134	3.33468
126.46207	14.19000	      -0.26415	3.33457
126.53716	14.20000	      -0.25770	3.33446
126.61218	14.21000	      -0.25147	3.33434
126.68724	14.22000	      -0.24536	3.33423
126.76227	14.23000	      -0.23973	3.33411
126.83735	14.24000	      -0.23465	3.33400
126.91238	14.25000	      -0.22978	3.33389
126.98751	14.26000	      -0.22535	3.33377
127.06262	14.27000	      -0.22157	3.33366
127.13776	14.28000	      -0.21794	3.33355
127.21284	14.29000	      -0.21489	3.33343
127.28789	14.30000	      -0.21226	3.33332
127.36287	14.31000	      -0.20971	3.33320
127.43795	14.32000	      -0.20764	3.33309
127.51300	14.33000	      -0.20559	3.33297
127.58807	14.34000	      -0.20412	3.33286
127.66311	14.35000	      -0.20265	3.33274
127.73811	14.36000	      -0.20128	3.33263
127.81313	14.37000	      -0.20023	3.33251
127.88822	14.38000	      -0.19914	3.33240
127.96331	14.39000	      -0.19849	3.33228
128.03845	14.40000	      -0.19795	3.33217
128.11344	14.41000	      -0.19738	3.33205
128.18842	14.42000	      -0.19711	3.33194
128.26336	14.43000	      -0.19671	3.33182
128.33833	14.44000	      -0.19659	3.33171
128.41325	14.45000	      -0.19639	3.33159
128.48820	14.46000	      -0.19625	3.33147
128.56315	14.47000	      -0.19630	3.33136
128.63816	14.48000	      -0.19634	3.33124
128.71315	14.49000	      -0.19637	3.33113
128.78809	14.50000	      -0.19650	3.33101
128.86300	14.51000	      -0.19678	3.33089
128.93796	14.52000	      -0.19706	3.33078
129.01287	14.53000	      -0.19744	3.33066
129.08778	14.54000	      -0.19773	3.33054
129.16264	14.55000	      -0.19786	3.33043
129.23747	14.56000	      -0.19828	3.33031
129.31231	14.57000	      -0.19861	3.33019
129.38715	14.58000	      -0.19910	3.33008
129.46198	14.59000	      -0.19969	3.32996
129.53678	14.60000	      -0.20028	3.32984
129.61162	14.61000	      -0.20044	3.32973
129.68647	14.62000	      -0.20080	3.32961
129.76136	14.63000	      -0.20136	3.32949
129.83625	14.64000	      -0.20195	3.32937
129.91116	14.65000	      -0.20249	3.32925
129.98607	14.66000	      -0.20277	3.32914
130.06096	14.67000	      -0.20337	3.32902
130.13585	14.68000	      -0.20377	3.32890
130.21084	14.69000	      -0.20445	3.32878
130.28578	14.70000	      -0.20515	3.32866
130.36076	14.71000	      -0.20540	3.32855
130.43574	14.72000	      -0.20592	3.32843
130.51076	14.73000	      -0.20670	3.32831
130.58576	14.74000	      -0.20747	3.32819
130.66073	14.75000	      -0.20825	3.32807
130.73569	14.76000	      -0.20867	3.32795
130.81076	14.77000	      -0.20928	3.32783
130.88584	14.78000	      -0.20995	3.32771
130.96096	14.79000	      -0.21073	3.32759
131.03607	14.80000	      -0.21137	3.32747
131.11115	14.81000	      -0.21190	3.32735
131.18625	14.82000	      -0.21243	3.32723
131.26138	14.83000	      -0.21304	3.32711
131.33655	14.84000	      -0.21378	3.32699
131.41169	14.85000	      -0.21433	3.32687
131.48684	14.86000	      -0.21512	3.32675
131.56200	14.87000	      -0.21575	3.32663
131.63713	14.88000	      -0.21616	3.32651
131.71225	14.89000	      -0.21671	3.32639
131.78735	14.90000	      -0.21752	3.32627
131.86247	14.91000	      -0.21796	3.32615
131.93749	14.92000	      -0.21851	3.32603
132.01249	14.93000	      -0.21910	3.32591
132.08747	14.94000	      -0.21964	3.32579
132.16251	14.95000	      -0.22025	3.32567
132.23755	14.96000	      -0.22052	3.32554
132.31256	14.97000	      -0.22096	3.32542
132.38762	14.98000	      -0.22155	3.32530
132.46264	14.99000	      -0.22214	3.32518
132.53767	15.00000	      -0.22275	3.32506
132.61269	15.01000	      -0.22335	3.32494
132.68769	15.02000	      -0.22399	3.32481
132.76265	15.03000	      -0.22463	3.32469
132.83764	15.04000	      -0.22527	3.32457
132.91260	15.05000	      -0.22591	3.32445
132.98753	15.06000	      -0.22655	3.32433
133.06240	15.07000	      -0.22719	3.32420
133.13735	15.08000	      -0.22779	3.32408
133.21231	15.09000	      -0.22845	3.32396
133.28727	15.10000	      -0.22900	3.32384
133.36224	15.11000	      -0.22968	3.32371
133.43718	15.12000	      -0.23044	3.32359
133.51216	15.13000	      -0.23122	3.32347
133.58711	15.14000	      -0.23175	3.32335
133.66205	15.15000	      -0.23243	3.32322
133.73705	15.16000	      -0.23306	3.32310
133.81204	15.17000	      -0.23357	3.32298
133.88696	15.18000	      -0.23412	3.32285
133.96193	15.19000	      -0.23470	3.32273
134.03698	15.20000	      -0.23526	3.32261
134.11204	15.21000	      -0.23583	3.32248
134.18702	15.22000	      -0.23643	3.32236
134.26200	15.23000	      -0.23706	3.32223
134.33704	15.24000	      -0.23759	3.32211
134.41207	15.25000	      -0.23811	3.32199
134.48711	15.26000	      -0.23874	3.32186
134.56205	15.27000	      -0.23919	3.32174
134.63704	15.28000	      -0.23967	3.32161
134.71207	15.29000	      -0.24019	3.32149
134.78713	15.30000	      -0.24072	3.32136
134.86213	15.31000	      -0.24117	3.32124
134.93715	15.32000	      -0.24172	3.32111
135.01213	15.33000	      -0.24235	3.32099
135.08714	15.34000	      -0.24306	3.32086
135.16216	15.35000	      -0.24354	3.32074
135.23711	15.36000	      -0.24397	3.32061
135.31209	15.37000	      -0.24449	3.32049
135.38709	15.38000	      -0.24505	3.32036
135.46209	15.39000	      -0.24535	3.32024
135.53709	15.40000	      -0.24603	3.32011
135.61211	15.41000	      -0.24636	3.31998
135.68713	15.42000	      -0.24666	3.31986
135.76209	15.43000	      -0.24734	3.31973
135.83709	15.44000	      -0.24779	3.31961
135.91207	15.45000	      -0.24800	3.31948
135.98707	15.46000	      -0.24837	3.31935
136.06209	15.47000	      -0.24866	3.31923
136.13707	15.48000	      -0.24904	3.31910
136.21209	15.49000	      -0.24944	3.31897
136.28713	15.50000	      -0.24988	3.31885
136.36209	15.51000	      -0.25008	3.31872
136.43707	15.52000	      -0.25044	3.31859
136.51204	15.53000	      -0.25071	3.31847
136.58705	15.54000	      -0.25097	3.31834
136.66209	15.55000	      -0.25110	3.31821
136.73704	15.56000	      -0.25153	3.31809
136.81194	15.57000	      -0.25206	3.31796
136.88691	15.58000	      -0.25204	3.31783
136.96187	15.59000	      -0.25207	3.31770
137.03684	15.60000	      -0.25232	3.31758
137.11184	15.61000	      -0.25288	3.31745
137.18682	15.62000	      -0.25318	3.31732
137.26180	15.63000	      -0.25328	3.31719
137.33678	15.64000	      -0.25344	3.31706
137.41174	15.65000	      -0.25379	3.31694
137.48676	15.66000	      -0.25402	3.31681
137.56175	15.67000	      -0.25409	3.31668
137.63671	15.68000	      -0.25415	3.31655
137.71169	15.69000	      -0.25430	3.31642
137.78669	15.70000	      -0.25440	3.31629
137.86167	15.71000	      -0.25445	3.31616
137.93667	15.72000	      -0.25461	3.31603
138.01173	15.73000	      -0.25476	3.31591
138.08671	15.74000	      -0.25500	3.31578
138.16178	15.75000	      -0.25517	3.31565
138.23680	15.76000	      -0.25514	3.31552
138.31184	15.77000	      -0.25535	3.31539
138.38687	15.78000	      -0.25542	3.31526
138.46195	15.79000	      -0.25556	3.31513
138.53700	15.80000	      -0.25558	3.31500
138.61202	15.81000	      -0.25572	3.31487
138.68705	15.82000	      -0.25578	3.31474
138.76211	15.83000	      -0.25588	3.31461
138.83715	15.84000	      -0.25584	3.31448
138.91225	15.85000	      -0.25591	3.31435
138.98735	15.86000	      -0.25582	3.31422
139.06246	15.87000	      -0.25586	3.31409
139.13753	15.88000	      -0.25596	3.31396
139.21256	15.89000	      -0.25602	3.31383
139.28762	15.90000	      -0.25600	3.31369
139.36269	15.91000	      -0.25599	3.31356
139.43776	15.92000	      -0.25594	3.31343
139.51280	15.93000	      -0.25590	3.31330
139.58778	15.94000	      -0.25588	3.31317
139.66278	15.95000	      -0.25592	3.31304
139.73784	15.96000	      -0.25587	3.31291
139.81289	15.97000	      -0.25583	3.31278
139.88795	15.98000	      -0.25576	3.31264
139.96296	15.99000	      -0.25567	3.31251
140.03795	16.00000	      -0.25557	3.31238
140.11289	16.01000	      -0.25561	3.31225
140.18782	16.02000	      -0.25554	3.31212
140.26275	16.03000	      -0.25545	3.31199
140.33765	16.04000	      -0.25531	3.31185
140.41260	16.05000	      -0.25517	3.31172
140.48755	16.06000	      -0.25513	3.31159
140.56249	16.07000	      -0.25498	3.31146
140.63740	16.08000	      -0.25489	3.31132
140.71240	16.09000	      -0.25475	3.31119
140.78738	16.10000	      -0.25466	3.31106
140.86235	16.11000	      -0.25457	3.31093
140.93736	16.12000	      -0.25445	3.31079
141.01236	16.13000	      -0.25434	3.31066
141.08736	16.14000	      -0.25430	3.31053
141.16238	16.15000	      -0.25428	3.31039
141.23736	16.16000	      -0.25399	3.31026
141.31235	16.17000	      -0.25405	3.31013
141.38735	16.18000	      -0.25399	3.30999
141.46235	16.19000	      -0.25400	3.30986
141.53738	16.20000	      -0.25393	3.30973
141.61246	16.21000	      -0.25382	3.30959
141.68753	16.22000	      -0.25368	3.30946
141.76260	16.23000	      -0.25361	3.30932
141.83762	16.24000	      -0.25350	3.30919
141.91260	16.25000	      -0.25318	3.30906
141.98760	16.26000	      -0.25297	3.30892
142.06264	16.27000	      -0.25278	3.30879
142.13765	16.28000	      -0.25269	3.30865
142.21273	16.29000	      -0.25273	3.30852
142.28780	16.30000	      -0.25264	3.30838
142.36286	16.31000	      -0.25233	3.30825
142.43789	16.32000	      -0.25229	3.30811
142.51295	16.33000	      -0.25230	3.30798
142.58791	16.34000	      -0.25222	3.30784
142.66293	16.35000	      -0.25210	3.30771
142.73793	16.36000	      -0.25199	3.30757
142.81291	16.37000	      -0.25190	3.30744
142.88789	16.38000	      -0.25169	3.30730
142.96282	16.39000	      -0.25138	3.30717
143.03776	16.40000	      -0.25101	3.30703
143.11267	16.41000	      -0.25086	3.30690
143.18758	16.42000	      -0.25081	3.30676
143.26251	16.43000	      -0.25074	3.30662
143.33740	16.44000	      -0.25062	3.30649
143.41242	16.45000	      -0.25055	3.30635
143.48740	16.46000	      -0.25038	3.30622
143.56235	16.47000	      -0.25023	3.30608
143.63729	16.48000	      -0.25013	3.30594
143.71215	16.49000	      -0.25004	3.30581
143.78704	16.50000	      -0.24997	3.30567
143.86195	16.51000	      -0.24987	3.30553
143.93689	16.52000	      -0.24977	3.30540
144.01186	16.53000	      -0.24973	3.30526
144.08678	16.54000	      -0.24961	3.30512
144.16176	16.55000	      -0.24957	3.30499
144.23669	16.56000	      -0.24950	3.30485
144.31164	16.57000	      -0.24946	3.30471
144.38660	16.58000	      -0.24931	3.30457
144.46153	16.59000	      -0.24919	3.30444
144.53647	16.60000	      -0.24910	3.30430
144.61149	16.61000	      -0.24903	3.30416
144.68649	16.62000	      -0.24889	3.30402
144.76147	16.63000	      -0.24877	3.30389
144.83645	16.64000	      -0.24860	3.30375
144.91142	16.65000	      -0.24851	3.30361
144.98640	16.66000	      -0.24854	3.30347
145.06138	16.67000	      -0.24854	3.30333
145.13635	16.68000	      -0.24840	3.30320
145.21140	16.69000	      -0.24835	3.30306
145.28636	16.70000	      -0.24826	3.30292
145.36138	16.71000	      -0.24811	3.30278
145.43644	16.72000	      -0.24812	3.30264
145.51145	16.73000	      -0.24797	3.30250
145.58644	16.74000	      -0.24775	3.30236
145.66144	16.75000	      -0.24765	3.30222
145.73649	16.76000	      -0.24748	3.30209
145.81151	16.77000	      -0.24751	3.30195
145.88653	16.78000	      -0.24749	3.30181
145.96153	16.79000	      -0.24729	3.30167
146.03655	16.80000	      -0.24722	3.30153
146.11158	16.81000	      -0.24721	3.30139
146.18664	16.82000	      -0.24719	3.30125
146.26165	16.83000	      -0.24707	3.30111
146.33673	16.84000	      -0.24698	3.30097
146.41176	16.85000	      -0.24688	3.30083
146.48682	16.86000	      -0.24674	3.30069
146.56187	16.87000	      -0.24659	3.30055
146.63691	16.88000	      -0.24647	3.30041
146.71195	16.89000	      -0.24633	3.30027
146.78702	16.90000	      -0.24621	3.30013
146.86200	16.91000	      -0.24602	3.29999
146.93705	16.92000	      -0.24559	3.29985
147.01213	16.93000	      -0.24537	3.29970
147.08716	16.94000	      -0.24536	3.29956
147.16216	16.95000	      -0.24540	3.29942
147.23716	16.96000	      -0.24523	3.29928
147.31215	16.97000	      -0.24514	3.29914
147.38709	16.98000	      -0.24505	3.29900
147.46205	16.99000	      -0.24494	3.29886
147.53696	17.00000	      -0.24477	3.29872
147.61196	17.01000	      -0.24463	3.29858
147.68687	17.02000	      -0.24441	3.29843
147.76184	17.03000	      -0.24414	3.29829
147.83680	17.04000	      -0.24413	3.29815
147.91184	17.05000	      -0.24412	3.29801
147.98687	17.06000	      -0.24385	3.29787
148.06187	17.07000	      -0.24363	3.29773
148.13691	17.08000	      -0.24353	3.29758
148.21195	17.09000	      -0.24341	3.29744
148.28700	17.10000	      -0.24324	3.29730
148.36202	17.11000	      -0.24312	3.29716
148.43700	17.12000	      -0.24300	3.29701
148.51200	17.13000	      -0.24289	3.29687
148.58693	17.14000	      -0.24279	3.29673
148.66191	17.15000	      -0.24280	3.29658
148.73693	17.16000	      -0.24268	3.29644
148.81195	17.17000	      -0.24248	3.29630
148.88695	17.18000	      -0.24234	3.29616
148.96200	17.19000	      -0.24222	3.29601
149.03696	17.20000	      -0.24210	3.29587
149.11200	17.21000	      -0.24206	3.29573
149.18712	17.22000	      -0.24190	3.29558
149.26223	17.23000	      -0.24158	3.29544
149.33729	17.24000	      -0.24136	3.29529
149.41245	17.25000	      -0.24132	3.29515
149.48752	17.26000	      -0.24105	3.29501
149.56257	17.27000	      -0.24071	3.29486
149.63747	17.28000	      -0.24057	3.29472
149.71240	17.29000	      -0.24051	3.29457
149.78754	17.30000	      -0.24034	3.29443
149.86328	17.31000	      -0.24028	3.29428
149.93866	17.32000	      -0.24011	3.29414

