#EXPORTTYPE:                 	DATA SINGLE                             
#FILE:                       	SK_Clear_resin_entalp5kpm_20-150.ngb-sdg
#FORMAT:                     	NETZSCH5                                
#FTYPE:                      	ASCII                                   
#IDENTITY:                   	SK_clear_resin                          
#DECIMAL:                    	POINT                                   
#SEPARATOR:                  	TAB                                     
#MTYPE:                      	DSC                                     
#INSTRUMENT:                 	NETZSCH DSC 214                         
#PROJECT:                    	?ø?†??-Ø                              
#DATE/TIME:                  	13.09.2019 19:00:27 (UTC+3)             
#CORR. FILE:                 	                                        
#TEMPCAL:                    	applied                                 
#SENSITIVITY:                	applied                                 
#LABORATORY:                 	CISIS                                   
#OPERATOR:                   	Nasonov                                 
#REMARK:                     	                                        
#SAMPLE:                     	1070-G290S -0-Ù.1-3-17X3                
#SAMPLE MASS /mg:            	8.3                                     
#MATERIAL:                   	                                        
#REFERENCE:                  	                                        
#REFERENCE MASS /mg:         	7.76                                    
#TYPE OF CRUCIBLE:           	Concavus Pan Al, pierced lid            
#SAMPLE CRUCIBLE MASS /mg:   	0                                       
#REFERENCE CRUCIBLE MASS /mg:	0                                       
#M.RANGE /ßV:                	5000                                    
#TAU-R:                      	---                                     
#CORR. CODE:                 	009                                     
#EXO:                        	+1                                      
#RANGE:                      	20ËC/5.0(K/min)/130ËC                   
#SEGMENT:                    	S1/1                                    
#SEG. 1:                     	20ËC/5.0(K/min)/130ËC                   

##Temp./ËC	Time/min	DSC/(mW/mg)	Sensit./(uV/mW)
 20.01700	 0.00000	 2.279258e-002	3.36733
 20.01794	 0.01000	 2.283882e-002	3.36733
 20.01857	 0.02000	 2.282005e-002	3.36733
 20.02401	 0.03000	 2.276994e-002	3.36734
 20.03631	 0.04000	 2.282406e-002	3.36735
 20.05572	 0.05000	 2.384946e-002	3.36737
 20.08221	 0.06000	 2.543072e-002	3.36740
 20.11548	 0.07000	 2.644164e-002	3.36743
 20.15536	 0.08000	 2.654706e-002	3.36748
 20.20107	 0.09000	 2.531115e-002	3.36752
 20.25194	 0.10000	 2.314328e-002	3.36758
 20.30736	 0.11000	 1.977917e-002	3.36763
 20.36659	 0.12000	 1.491726e-002	3.36770
 20.42885	 0.13000	 9.636392e-003	3.36776
 20.49347	 0.14000	 2.906497e-003	3.36783
 20.55978	 0.15000	-4.774378e-003	3.36789
 20.62718	 0.16000	-1.351822e-002	3.36796
 20.69514	 0.17000	-2.247876e-002	3.36803
 20.76322	 0.18000	-3.217492e-002	3.36810
 20.83084	 0.19000	-4.265134e-002	3.36817
 20.89810	 0.20000	-5.347383e-002	3.36824
 20.95363	 0.21000	-6.404487e-002	3.36830
 21.01084	 0.22000	-7.485254e-002	3.36836
 21.06926	 0.23000	-8.566256e-002	3.36841
 21.12895	 0.24000	-9.644200e-002	3.36847
 21.18972	 0.25000	      -0.10713	3.36854
 21.25151	 0.26000	      -0.11737	3.36860
 21.31399	 0.27000	      -0.12705	3.36866
 21.37708	 0.28000	      -0.13598	3.36873
 21.44067	 0.29000	      -0.14454	3.36879
 21.50451	 0.30000	      -0.15285	3.36885
 21.56849	 0.31000	      -0.16009	3.36892
 21.63248	 0.32000	      -0.16679	3.36898
 21.69631	 0.33000	      -0.17305	3.36904
 21.75992	 0.34000	      -0.17829	3.36911
 21.82305	 0.35000	      -0.18285	3.36917
 21.88572	 0.36000	      -0.18661	3.36923
 21.94780	 0.37000	      -0.18972	3.36929
 22.00920	 0.38000	      -0.19211	3.36936
 22.06984	 0.39000	      -0.19411	3.36942
 22.12967	 0.40000	      -0.19514	3.36947
 22.18866	 0.41000	      -0.19572	3.36953
 22.24679	 0.42000	      -0.19575	3.36959
 22.30397	 0.43000	      -0.19535	3.36965
 22.36021	 0.44000	      -0.19437	3.36970
 22.41551	 0.45000	      -0.19285	3.36975
 22.46989	 0.46000	      -0.19100	3.36981
 22.52335	 0.47000	      -0.18898	3.36986
 22.57592	 0.48000	      -0.18644	3.36991
 22.62766	 0.49000	      -0.18361	3.36996
 22.67854	 0.50000	      -0.18059	3.37001
 22.72860	 0.51000	      -0.17748	3.37006
 22.77793	 0.52000	      -0.17423	3.37011
 22.82658	 0.53000	      -0.17111	3.37015
 22.87456	 0.54000	      -0.16774	3.37020
 22.92194	 0.55000	      -0.16426	3.37025
 22.96877	 0.56000	      -0.16075	3.37029
 23.01514	 0.57000	      -0.15744	3.37034
 23.06108	 0.58000	      -0.15416	3.37038
 23.10667	 0.59000	      -0.15105	3.37042
 23.15190	 0.60000	      -0.14825	3.37047
 23.19690	 0.61000	      -0.14566	3.37051
 23.24167	 0.62000	      -0.14303	3.37055
 23.28634	 0.63000	      -0.14044	3.37060
 23.33085	 0.64000	      -0.13805	3.37064
 23.37533	 0.65000	      -0.13585	3.37068
 23.41979	 0.66000	      -0.13399	3.37072
 23.46429	 0.67000	      -0.13250	3.37076
 23.50884	 0.68000	      -0.13119	3.37081
 23.55348	 0.69000	      -0.12990	3.37085
 23.59818	 0.70000	      -0.12848	3.37089
 23.64304	 0.71000	      -0.12741	3.37093
 23.68810	 0.72000	      -0.12671	3.37098
 23.73330	 0.73000	      -0.12607	3.37102
 23.77875	 0.74000	      -0.12547	3.37106
 23.82438	 0.75000	      -0.12553	3.37110
 23.87030	 0.76000	      -0.12547	3.37115
 23.91644	 0.77000	      -0.12549	3.37119
 23.96282	 0.78000	      -0.12551	3.37123
 24.00938	 0.79000	      -0.12565	3.37128
 24.05620	 0.80000	      -0.12597	3.37132
 24.10324	 0.81000	      -0.12661	3.37136
 24.15052	 0.82000	      -0.12721	3.37141
 24.19804	 0.83000	      -0.12793	3.37145
 24.24584	 0.84000	      -0.12873	3.37150
 24.29380	 0.85000	      -0.12950	3.37154
 24.34200	 0.86000	      -0.13020	3.37159
 24.39036	 0.87000	      -0.13103	3.37163
 24.43892	 0.88000	      -0.13185	3.37168
 24.48764	 0.89000	      -0.13285	3.37172
 24.53654	 0.90000	      -0.13359	3.37177
 24.58563	 0.91000	      -0.13441	3.37181
 24.63484	 0.92000	      -0.13529	3.37186
 24.68415	 0.93000	      -0.13615	3.37190
 24.73359	 0.94000	      -0.13695	3.37195
 24.78318	 0.95000	      -0.13768	3.37199
 24.83285	 0.96000	      -0.13857	3.37204
 24.88262	 0.97000	      -0.13964	3.37208
 24.93246	 0.98000	      -0.14025	3.37213
 24.98232	 0.99000	      -0.14057	3.37217
 25.03225	 1.00000	      -0.14134	3.37222
 25.08224	 1.01000	      -0.14202	3.37226
 25.13231	 1.02000	      -0.14261	3.37231
 25.18235	 1.03000	      -0.14294	3.37235
 25.23234	 1.04000	      -0.14320	3.37240
 25.28240	 1.05000	      -0.14383	3.37244
 25.33248	 1.06000	      -0.14425	3.37249
 25.38253	 1.07000	      -0.14460	3.37253
 25.43259	 1.08000	      -0.14476	3.37258
 25.48265	 1.09000	      -0.14506	3.37262
 25.53266	 1.10000	      -0.14521	3.37267
 25.58269	 1.11000	      -0.14557	3.37271
 25.63270	 1.12000	      -0.14586	3.37276
 25.68268	 1.13000	      -0.14603	3.37280
 25.73261	 1.14000	      -0.14607	3.37285
 25.78248	 1.15000	      -0.14620	3.37289
 25.83230	 1.16000	      -0.14617	3.37293
 25.88211	 1.17000	      -0.14617	3.37298
 25.93187	 1.18000	      -0.14621	3.37302
 25.98164	 1.19000	      -0.14628	3.37307
 26.03146	 1.20000	      -0.14649	3.37311
 26.08129	 1.21000	      -0.14655	3.37315
 26.13111	 1.22000	      -0.14653	3.37320
 26.18085	 1.23000	      -0.14651	3.37324
 26.23057	 1.24000	      -0.14645	3.37328
 26.28025	 1.25000	      -0.14641	3.37333
 26.32993	 1.26000	      -0.14633	3.37337
 26.37967	 1.27000	      -0.14635	3.37341
 26.42946	 1.28000	      -0.14641	3.37346
 26.47923	 1.29000	      -0.14631	3.37350
 26.52893	 1.30000	      -0.14629	3.37354
 26.57863	 1.31000	      -0.14622	3.37359
 26.62834	 1.32000	      -0.14615	3.37363
 26.67807	 1.33000	      -0.14607	3.37367
 26.72784	 1.34000	      -0.14609	3.37371
 26.77757	 1.35000	      -0.14617	3.37376
 26.82730	 1.36000	      -0.14617	3.37380
 26.87703	 1.37000	      -0.14617	3.37384
 26.92674	 1.38000	      -0.14619	3.37388
 26.97645	 1.39000	      -0.14609	3.37393
 27.02620	 1.40000	      -0.14618	3.37397
 27.07599	 1.41000	      -0.14624	3.37401
 27.12577	 1.42000	      -0.14640	3.37405
 27.17552	 1.43000	      -0.14637	3.37410
 27.22533	 1.44000	      -0.14640	3.37414
 27.27515	 1.45000	      -0.14646	3.37418
 27.32493	 1.46000	      -0.14643	3.37422
 27.37469	 1.47000	      -0.14673	3.37426
 27.42448	 1.48000	      -0.14690	3.37431
 27.47423	 1.49000	      -0.14689	3.37435
 27.52403	 1.50000	      -0.14690	3.37439
 27.57391	 1.51000	      -0.14690	3.37443
 27.62379	 1.52000	      -0.14696	3.37447
 27.67363	 1.53000	      -0.14725	3.37451
 27.72349	 1.54000	      -0.14750	3.37456
 27.77335	 1.55000	      -0.14751	3.37460
 27.82328	 1.56000	      -0.14745	3.37464
 27.87322	 1.57000	      -0.14747	3.37468
 27.92311	 1.58000	      -0.14751	3.37472
 27.97303	 1.59000	      -0.14766	3.37476
 28.02297	 1.60000	      -0.14777	3.37480
 28.07283	 1.61000	      -0.14792	3.37484
 28.12275	 1.62000	      -0.14804	3.37489
 28.17266	 1.63000	      -0.14811	3.37493
 28.22264	 1.64000	      -0.14809	3.37497
 28.27259	 1.65000	      -0.14831	3.37501
 28.32256	 1.66000	      -0.14836	3.37505
 28.37255	 1.67000	      -0.14847	3.37509
 28.42249	 1.68000	      -0.14868	3.37513
 28.47239	 1.69000	      -0.14879	3.37517
 28.52230	 1.70000	      -0.14890	3.37521
 28.57223	 1.71000	      -0.14897	3.37525
 28.62218	 1.72000	      -0.14903	3.37529
 28.67215	 1.73000	      -0.14909	3.37533
 28.72210	 1.74000	      -0.14911	3.37537
 28.77207	 1.75000	      -0.14914	3.37541
 28.82203	 1.76000	      -0.14919	3.37545
 28.87199	 1.77000	      -0.14934	3.37549
 28.92197	 1.78000	      -0.14946	3.37553
 28.97196	 1.79000	      -0.14943	3.37557
 29.02192	 1.80000	      -0.14945	3.37561
 29.07186	 1.81000	      -0.14941	3.37565
 29.12177	 1.82000	      -0.14967	3.37569
 29.17171	 1.83000	      -0.14971	3.37573
 29.22172	 1.84000	      -0.14973	3.37577
 29.27169	 1.85000	      -0.14975	3.37581
 29.32166	 1.86000	      -0.14976	3.37585
 29.37163	 1.87000	      -0.14983	3.37589
 29.42167	 1.88000	      -0.14996	3.37593
 29.47171	 1.89000	      -0.15008	3.37597
 29.52179	 1.90000	      -0.15018	3.37601
 29.57184	 1.91000	      -0.15020	3.37605
 29.62185	 1.92000	      -0.15027	3.37609
 29.67189	 1.93000	      -0.15033	3.37613
 29.72192	 1.94000	      -0.15032	3.37616
 29.77198	 1.95000	      -0.15049	3.37620
 29.82207	 1.96000	      -0.15046	3.37624
 29.87209	 1.97000	      -0.15056	3.37628
 29.92213	 1.98000	      -0.15060	3.37632
 29.97217	 1.99000	      -0.15099	3.37636
 30.02218	 2.00000	      -0.15091	3.37640
 30.07220	 2.01000	      -0.15098	3.37644
 30.12223	 2.02000	      -0.15107	3.37647
 30.17224	 2.03000	      -0.15128	3.37651
 30.22225	 2.04000	      -0.15136	3.37655
 30.27227	 2.05000	      -0.15132	3.37659
 30.32231	 2.06000	      -0.15127	3.37663
 30.37231	 2.07000	      -0.15126	3.37666
 30.42234	 2.08000	      -0.15138	3.37670
 30.47237	 2.09000	      -0.15145	3.37674
 30.52238	 2.10000	      -0.15153	3.37678
 30.57245	 2.11000	      -0.15154	3.37682
 30.62254	 2.12000	      -0.15161	3.37685
 30.67255	 2.13000	      -0.15184	3.37689
 30.72256	 2.14000	      -0.15193	3.37693
 30.77259	 2.15000	      -0.15199	3.37697
 30.82262	 2.16000	      -0.15214	3.37700
 30.87260	 2.17000	      -0.15216	3.37704
 30.92266	 2.18000	      -0.15208	3.37708
 30.97268	 2.19000	      -0.15204	3.37712
 31.02274	 2.20000	      -0.15213	3.37715
 31.07280	 2.21000	      -0.15225	3.37719
 31.12289	 2.22000	      -0.15228	3.37723
 31.17300	 2.23000	      -0.15222	3.37726
 31.22302	 2.24000	      -0.15225	3.37730
 31.27306	 2.25000	      -0.15236	3.37734
 31.32311	 2.26000	      -0.15240	3.37738
 31.37318	 2.27000	      -0.15250	3.37741
 31.42323	 2.28000	      -0.15277	3.37745
 31.47324	 2.29000	      -0.15278	3.37749
 31.52325	 2.30000	      -0.15274	3.37752
 31.57331	 2.31000	      -0.15272	3.37756
 31.62334	 2.32000	      -0.15278	3.37759
 31.67341	 2.33000	      -0.15311	3.37763
 31.72348	 2.34000	      -0.15318	3.37767
 31.77354	 2.35000	      -0.15313	3.37770
 31.82362	 2.36000	      -0.15311	3.37774
 31.87365	 2.37000	      -0.15311	3.37778
 31.92366	 2.38000	      -0.15311	3.37781
 31.97364	 2.39000	      -0.15331	3.37785
 32.02369	 2.40000	      -0.15331	3.37788
 32.07373	 2.41000	      -0.15328	3.37792
 32.12380	 2.42000	      -0.15336	3.37795
 32.17390	 2.43000	      -0.15375	3.37799
 32.22395	 2.44000	      -0.15376	3.37803
 32.27397	 2.45000	      -0.15377	3.37806
 32.32402	 2.46000	      -0.15388	3.37810
 32.37408	 2.47000	      -0.15393	3.37813
 32.42416	 2.48000	      -0.15404	3.37817
 32.47420	 2.49000	      -0.15412	3.37820
 32.52421	 2.50000	      -0.15427	3.37824
 32.57425	 2.51000	      -0.15435	3.37827
 32.62426	 2.52000	      -0.15426	3.37831
 32.67429	 2.53000	      -0.15430	3.37834
 32.72434	 2.54000	      -0.15439	3.37838
 32.77440	 2.55000	      -0.15434	3.37841
 32.82444	 2.56000	      -0.15433	3.37845
 32.87454	 2.57000	      -0.15442	3.37848
 32.92462	 2.58000	      -0.15448	3.37852
 32.97463	 2.59000	      -0.15439	3.37855
 33.02464	 2.60000	      -0.15441	3.37859
 33.07464	 2.61000	      -0.15448	3.37862
 33.12462	 2.62000	      -0.15439	3.37865
 33.17456	 2.63000	      -0.15435	3.37869
 33.22452	 2.64000	      -0.15433	3.37872
 33.27449	 2.65000	      -0.15442	3.37876
 33.32448	 2.66000	      -0.15441	3.37879
 33.37444	 2.67000	      -0.15450	3.37883
 33.42444	 2.68000	      -0.15455	3.37886
 33.47445	 2.69000	      -0.15462	3.37889
 33.52448	 2.70000	      -0.15465	3.37893
 33.57449	 2.71000	      -0.15472	3.37896
 33.62446	 2.72000	      -0.15476	3.37899
 33.67442	 2.73000	      -0.15476	3.37903
 33.72441	 2.74000	      -0.15476	3.37906
 33.77437	 2.75000	      -0.15479	3.37909
 33.82439	 2.76000	      -0.15498	3.37913
 33.87437	 2.77000	      -0.15515	3.37916
 33.92439	 2.78000	      -0.15516	3.37919
 33.97450	 2.79000	      -0.15520	3.37923
 34.02456	 2.80000	      -0.15513	3.37926
 34.07463	 2.81000	      -0.15513	3.37929
 34.12461	 2.82000	      -0.15515	3.37933
 34.17458	 2.83000	      -0.15522	3.37936
 34.22456	 2.84000	      -0.15523	3.37939
 34.27458	 2.85000	      -0.15532	3.37943
 34.32456	 2.86000	      -0.15539	3.37946
 34.37456	 2.87000	      -0.15565	3.37949
 34.42454	 2.88000	      -0.15538	3.37952
 34.47454	 2.89000	      -0.15551	3.37956
 34.52456	 2.90000	      -0.15563	3.37959
 34.57460	 2.91000	      -0.15561	3.37962
 34.62462	 2.92000	      -0.15573	3.37965
 34.67463	 2.93000	      -0.15572	3.37969
 34.72466	 2.94000	      -0.15564	3.37972
 34.77465	 2.95000	      -0.15568	3.37975
 34.82466	 2.96000	      -0.15559	3.37978
 34.87467	 2.97000	      -0.15573	3.37981
 34.92466	 2.98000	      -0.15574	3.37985
 34.97466	 2.99000	      -0.15583	3.37988
 35.02466	 3.00000	      -0.15592	3.37991
 35.07471	 3.01000	      -0.15606	3.37994
 35.12475	 3.02000	      -0.15614	3.37997
 35.17484	 3.03000	      -0.15612	3.38000
 35.22492	 3.04000	      -0.15609	3.38004
 35.27499	 3.05000	      -0.15614	3.38007
 35.32508	 3.06000	      -0.15607	3.38010
 35.37515	 3.07000	      -0.15630	3.38013
 35.42521	 3.08000	      -0.15627	3.38016
 35.47527	 3.09000	      -0.15634	3.38019
 35.52531	 3.10000	      -0.15638	3.38022
 35.57533	 3.11000	      -0.15656	3.38025
 35.62538	 3.12000	      -0.15671	3.38029
 35.67542	 3.13000	      -0.15670	3.38032
 35.72544	 3.14000	      -0.15666	3.38035
 35.77544	 3.15000	      -0.15663	3.38038
 35.82546	 3.16000	      -0.15661	3.38041
 35.87548	 3.17000	      -0.15696	3.38044
 35.92554	 3.18000	      -0.15694	3.38047
 35.97557	 3.19000	      -0.15705	3.38050
 36.02562	 3.20000	      -0.15706	3.38053
 36.07564	 3.21000	      -0.15708	3.38056
 36.12569	 3.22000	      -0.15725	3.38059
 36.17576	 3.23000	      -0.15730	3.38062
 36.22584	 3.24000	      -0.15726	3.38065
 36.27587	 3.25000	      -0.15734	3.38068
 36.32592	 3.26000	      -0.15742	3.38071
 36.37594	 3.27000	      -0.15748	3.38074
 36.42595	 3.28000	      -0.15756	3.38077
 36.47596	 3.29000	      -0.15767	3.38080
 36.52602	 3.30000	      -0.15773	3.38083
 36.57604	 3.31000	      -0.15778	3.38086
 36.62610	 3.32000	      -0.15781	3.38089
 36.67613	 3.33000	      -0.15778	3.38092
 36.72623	 3.34000	      -0.15789	3.38095
 36.77629	 3.35000	      -0.15790	3.38098
 36.82634	 3.36000	      -0.15798	3.38101
 36.87640	 3.37000	      -0.15809	3.38104
 36.92644	 3.38000	      -0.15820	3.38107
 36.97647	 3.39000	      -0.15835	3.38110
 37.02654	 3.40000	      -0.15837	3.38113
 37.07659	 3.41000	      -0.15845	3.38116
 37.12662	 3.42000	      -0.15846	3.38118
 37.17668	 3.43000	      -0.15852	3.38121
 37.22670	 3.44000	      -0.15841	3.38124
 37.27673	 3.45000	      -0.15847	3.38127
 37.32677	 3.46000	      -0.15859	3.38130
 37.37677	 3.47000	      -0.15864	3.38133
 37.42677	 3.48000	      -0.15873	3.38136
 37.47680	 3.49000	      -0.15896	3.38139
 37.52680	 3.50000	      -0.15902	3.38141
 37.57686	 3.51000	      -0.15900	3.38144
 37.62693	 3.52000	      -0.15903	3.38147
 37.67695	 3.53000	      -0.15920	3.38150
 37.72700	 3.54000	      -0.15920	3.38153
 37.77705	 3.55000	      -0.15926	3.38156
 37.82713	 3.56000	      -0.15935	3.38158
 37.87723	 3.57000	      -0.15948	3.38161
 37.92726	 3.58000	      -0.15955	3.38164
 37.97728	 3.59000	      -0.15962	3.38167
 38.02731	 3.60000	      -0.15970	3.38169
 38.07730	 3.61000	      -0.15980	3.38172
 38.12731	 3.62000	      -0.15995	3.38175
 38.17734	 3.63000	      -0.16008	3.38178
 38.22736	 3.64000	      -0.16023	3.38181
 38.27738	 3.65000	      -0.16027	3.38183
 38.32739	 3.66000	      -0.16024	3.38186
 38.37736	 3.67000	      -0.16031	3.38189
 38.42739	 3.68000	      -0.16044	3.38191
 38.47739	 3.69000	      -0.16049	3.38194
 38.52744	 3.70000	      -0.16055	3.38197
 38.57743	 3.71000	      -0.16061	3.38200
 38.62744	 3.72000	      -0.16064	3.38202
 38.67741	 3.73000	      -0.16064	3.38205
 38.72741	 3.74000	      -0.16070	3.38208
 38.77736	 3.75000	      -0.16074	3.38210
 38.82734	 3.76000	      -0.16082	3.38213
 38.87733	 3.77000	      -0.16082	3.38216
 38.92734	 3.78000	      -0.16091	3.38218
 38.97732	 3.79000	      -0.16086	3.38221
 39.02731	 3.80000	      -0.16094	3.38224
 39.07729	 3.81000	      -0.16112	3.38226
 39.12726	 3.82000	      -0.16097	3.38229
 39.17721	 3.83000	      -0.16101	3.38231
 39.22718	 3.84000	      -0.16100	3.38234
 39.27720	 3.85000	      -0.16103	3.38237
 39.32721	 3.86000	      -0.16109	3.38239
 39.37719	 3.87000	      -0.16113	3.38242
 39.42720	 3.88000	      -0.16114	3.38244
 39.47724	 3.89000	      -0.16112	3.38247
 39.52725	 3.90000	      -0.16109	3.38250
 39.57723	 3.91000	      -0.16118	3.38252
 39.62723	 3.92000	      -0.16117	3.38255
 39.67719	 3.93000	      -0.16111	3.38257
 39.72721	 3.94000	      -0.16134	3.38260
 39.77723	 3.95000	      -0.16134	3.38262
 39.82725	 3.96000	      -0.16131	3.38265
 39.87720	 3.97000	      -0.16140	3.38267
 39.92716	 3.98000	      -0.16139	3.38270
 39.97713	 3.99000	      -0.16145	3.38272
 40.02713	 4.00000	      -0.16153	3.38275
 40.07712	 4.01000	      -0.16169	3.38278
 40.12711	 4.02000	      -0.16169	3.38280
 40.17710	 4.03000	      -0.16161	3.38283
 40.22707	 4.04000	      -0.16145	3.38285
 40.27706	 4.05000	      -0.16163	3.38287
 40.32710	 4.06000	      -0.16158	3.38290
 40.37713	 4.07000	      -0.16157	3.38292
 40.42718	 4.08000	      -0.16171	3.38295
 40.47723	 4.09000	      -0.16195	3.38297
 40.52725	 4.10000	      -0.16196	3.38300
 40.57725	 4.11000	      -0.16204	3.38302
 40.62731	 4.12000	      -0.16209	3.38305
 40.67734	 4.13000	      -0.16211	3.38307
 40.72743	 4.14000	      -0.16214	3.38309
 40.77747	 4.15000	      -0.16206	3.38312
 40.82752	 4.16000	      -0.16208	3.38314
 40.87758	 4.17000	      -0.16206	3.38317
 40.92762	 4.18000	      -0.16203	3.38319
 40.97763	 4.19000	      -0.16202	3.38321
 41.02764	 4.20000	      -0.16210	3.38324
 41.07765	 4.21000	      -0.16217	3.38326
 41.12767	 4.22000	      -0.16215	3.38329
 41.17771	 4.23000	      -0.16210	3.38331
 41.22774	 4.24000	      -0.16220	3.38333
 41.27774	 4.25000	      -0.16220	3.38336
 41.32774	 4.26000	      -0.16223	3.38338
 41.37776	 4.27000	      -0.16226	3.38340
 41.42777	 4.28000	      -0.16233	3.38343
 41.47776	 4.29000	      -0.16243	3.38345
 41.52775	 4.30000	      -0.16252	3.38347
 41.57775	 4.31000	      -0.16266	3.38350
 41.62777	 4.32000	      -0.16274	3.38352
 41.67778	 4.33000	      -0.16273	3.38354
 41.72780	 4.34000	      -0.16279	3.38356
 41.77782	 4.35000	      -0.16285	3.38359
 41.82784	 4.36000	      -0.16287	3.38361
 41.87783	 4.37000	      -0.16290	3.38363
 41.92784	 4.38000	      -0.16295	3.38365
 41.97784	 4.39000	      -0.16322	3.38368
 42.02785	 4.40000	      -0.16330	3.38370
 42.07784	 4.41000	      -0.16320	3.38372
 42.12784	 4.42000	      -0.16329	3.38374
 42.17788	 4.43000	      -0.16328	3.38377
 42.22792	 4.44000	      -0.16334	3.38379
 42.27798	 4.45000	      -0.16337	3.38381
 42.32802	 4.46000	      -0.16344	3.38383
 42.37804	 4.47000	      -0.16350	3.38386
 42.42808	 4.48000	      -0.16351	3.38388
 42.47812	 4.49000	      -0.16347	3.38390
 42.52818	 4.50000	      -0.16352	3.38392
 42.57826	 4.51000	      -0.16356	3.38394
 42.62826	 4.52000	      -0.16362	3.38396
 42.67828	 4.53000	      -0.16364	3.38399
 42.72829	 4.54000	      -0.16370	3.38401
 42.77830	 4.55000	      -0.16383	3.38403
 42.82831	 4.56000	      -0.16377	3.38405
 42.87834	 4.57000	      -0.16376	3.38407
 42.92836	 4.58000	      -0.16378	3.38409
 42.97838	 4.59000	      -0.16392	3.38411
 43.02841	 4.60000	      -0.16403	3.38413
 43.07847	 4.61000	      -0.16398	3.38416
 43.12851	 4.62000	      -0.16402	3.38418
 43.17854	 4.63000	      -0.16404	3.38420
 43.22856	 4.64000	      -0.16407	3.38422
 43.27855	 4.65000	      -0.16415	3.38424
 43.32859	 4.66000	      -0.16417	3.38426
 43.37861	 4.67000	      -0.16440	3.38428
 43.42864	 4.68000	      -0.16479	3.38430
 43.47868	 4.69000	      -0.16469	3.38432
 43.52872	 4.70000	      -0.16473	3.38434
 43.57875	 4.71000	      -0.16480	3.38436
 43.62874	 4.72000	      -0.16477	3.38438
 43.67874	 4.73000	      -0.16476	3.38440
 43.72872	 4.74000	      -0.16485	3.38442
 43.77873	 4.75000	      -0.16487	3.38444
 43.82874	 4.76000	      -0.16489	3.38446
 43.87870	 4.77000	      -0.16489	3.38448
 43.92867	 4.78000	      -0.16489	3.38450
 43.97869	 4.79000	      -0.16490	3.38452
 44.02870	 4.80000	      -0.16492	3.38454
 44.07872	 4.81000	      -0.16517	3.38456
 44.12877	 4.82000	      -0.16517	3.38458
 44.17881	 4.83000	      -0.16519	3.38460
 44.22882	 4.84000	      -0.16509	3.38462
 44.27884	 4.85000	      -0.16509	3.38464
 44.32884	 4.86000	      -0.16514	3.38466
 44.37881	 4.87000	      -0.16523	3.38468
 44.42885	 4.88000	      -0.16523	3.38470
 44.47885	 4.89000	      -0.16507	3.38472
 44.52884	 4.90000	      -0.16509	3.38474
 44.57879	 4.91000	      -0.16527	3.38476
 44.62875	 4.92000	      -0.16531	3.38478
 44.67878	 4.93000	      -0.16540	3.38479
 44.72877	 4.94000	      -0.16545	3.38481
 44.77874	 4.95000	      -0.16548	3.38483
 44.82875	 4.96000	      -0.16548	3.38485
 44.87874	 4.97000	      -0.16555	3.38487
 44.92872	 4.98000	      -0.16562	3.38489
 44.97872	 4.99000	      -0.16566	3.38491
 45.02871	 5.00000	      -0.16573	3.38493
 45.07874	 5.01000	      -0.16570	3.38494
 45.12877	 5.02000	      -0.16564	3.38496
 45.17877	 5.03000	      -0.16572	3.38498
 45.22877	 5.04000	      -0.16583	3.38500
 45.27881	 5.05000	      -0.16588	3.38502
 45.32885	 5.06000	      -0.16585	3.38504
 45.37885	 5.07000	      -0.16581	3.38505
 45.42887	 5.08000	      -0.16593	3.38507
 45.47891	 5.09000	      -0.16593	3.38509
 45.52892	 5.10000	      -0.16584	3.38511
 45.57899	 5.11000	      -0.16587	3.38512
 45.62903	 5.12000	      -0.16589	3.38514
 45.67915	 5.13000	      -0.16594	3.38516
 45.72918	 5.14000	      -0.16586	3.38518
 45.77921	 5.15000	      -0.16587	3.38520
 45.82920	 5.16000	      -0.16585	3.38521
 45.87921	 5.17000	      -0.16591	3.38523
 45.92923	 5.18000	      -0.16604	3.38525
 45.97924	 5.19000	      -0.16603	3.38526
 46.02923	 5.20000	      -0.16622	3.38528
 46.07927	 5.21000	      -0.16624	3.38530
 46.12926	 5.22000	      -0.16624	3.38532
 46.17929	 5.23000	      -0.16624	3.38533
 46.22933	 5.24000	      -0.16623	3.38535
 46.27934	 5.25000	      -0.16635	3.38537
 46.32933	 5.26000	      -0.16632	3.38538
 46.37934	 5.27000	      -0.16623	3.38540
 46.42933	 5.28000	      -0.16626	3.38542
 46.47933	 5.29000	      -0.16638	3.38543
 46.52930	 5.30000	      -0.16646	3.38545
 46.57933	 5.31000	      -0.16650	3.38547
 46.62936	 5.32000	      -0.16651	3.38548
 46.67936	 5.33000	      -0.16656	3.38550
 46.72934	 5.34000	      -0.16655	3.38552
 46.77942	 5.35000	      -0.16659	3.38553
 46.82943	 5.36000	      -0.16667	3.38555
 46.87943	 5.37000	      -0.16662	3.38556
 46.92944	 5.38000	      -0.16650	3.38558
 46.97942	 5.39000	      -0.16653	3.38560
 47.02939	 5.40000	      -0.16647	3.38561
 47.07938	 5.41000	      -0.16653	3.38563
 47.12941	 5.42000	      -0.16659	3.38564
 47.17946	 5.43000	      -0.16647	3.38566
 47.22951	 5.44000	      -0.16649	3.38567
 47.27952	 5.45000	      -0.16649	3.38569
 47.32954	 5.46000	      -0.16661	3.38571
 47.37954	 5.47000	      -0.16691	3.38572
 47.42956	 5.48000	      -0.16692	3.38574
 47.47959	 5.49000	      -0.16692	3.38575
 47.52959	 5.50000	      -0.16682	3.38577
 47.57962	 5.51000	      -0.16696	3.38578
 47.62959	 5.52000	      -0.16694	3.38580
 47.67954	 5.53000	      -0.16700	3.38581
 47.72948	 5.54000	      -0.16700	3.38583
 47.77947	 5.55000	      -0.16701	3.38584
 47.82949	 5.56000	      -0.16718	3.38586
 47.87951	 5.57000	      -0.16721	3.38587
 47.92949	 5.58000	      -0.16719	3.38589
 47.97950	 5.59000	      -0.16717	3.38590
 48.02952	 5.60000	      -0.16725	3.38592
 48.07952	 5.61000	      -0.16741	3.38593
 48.12951	 5.62000	      -0.16738	3.38594
 48.17949	 5.63000	      -0.16738	3.38596
 48.22946	 5.64000	      -0.16740	3.38597
 48.27944	 5.65000	      -0.16747	3.38599
 48.32948	 5.66000	      -0.16751	3.38600
 48.37950	 5.67000	      -0.16745	3.38601
 48.42954	 5.68000	      -0.16755	3.38603
 48.47958	 5.69000	      -0.16763	3.38604
 48.52956	 5.70000	      -0.16755	3.38606
 48.57956	 5.71000	      -0.16748	3.38607
 48.62956	 5.72000	      -0.16763	3.38608
 48.67956	 5.73000	      -0.16768	3.38610
 48.72956	 5.74000	      -0.16768	3.38611
 48.77955	 5.75000	      -0.16762	3.38613
 48.82954	 5.76000	      -0.16762	3.38614
 48.87950	 5.77000	      -0.16754	3.38615
 48.92951	 5.78000	      -0.16745	3.38617
 48.97952	 5.79000	      -0.16749	3.38618
 49.02954	 5.80000	      -0.16759	3.38619
 49.07958	 5.81000	      -0.16781	3.38621
 49.12957	 5.82000	      -0.16778	3.38622
 49.17951	 5.83000	      -0.16780	3.38623
 49.22952	 5.84000	      -0.16777	3.38624
 49.27953	 5.85000	      -0.16786	3.38626
 49.32957	 5.86000	      -0.16785	3.38627
 49.37959	 5.87000	      -0.16793	3.38628
 49.42962	 5.88000	      -0.16798	3.38630
 49.47966	 5.89000	      -0.16804	3.38631
 49.52964	 5.90000	      -0.16798	3.38632
 49.57964	 5.91000	      -0.16796	3.38633
 49.62956	 5.92000	      -0.16822	3.38635
 49.67953	 5.93000	      -0.16818	3.38636
 49.72957	 5.94000	      -0.16813	3.38637
 49.77958	 5.95000	      -0.16815	3.38638
 49.82956	 5.96000	      -0.16807	3.38640
 49.87957	 5.97000	      -0.16813	3.38641
 49.92952	 5.98000	      -0.16823	3.38642
 49.97952	 5.99000	      -0.16834	3.38643
 50.02956	 6.00000	      -0.16846	3.38644
 50.07960	 6.01000	      -0.16833	3.38646
 50.12962	 6.02000	      -0.16832	3.38647
 50.17964	 6.03000	      -0.16838	3.38648
 50.22967	 6.04000	      -0.16840	3.38649
 50.27968	 6.05000	      -0.16845	3.38650
 50.32966	 6.06000	      -0.16850	3.38651
 50.37961	 6.07000	      -0.16855	3.38653
 50.42962	 6.08000	      -0.16863	3.38654
 50.47960	 6.09000	      -0.16864	3.38655
 50.52961	 6.10000	      -0.16871	3.38656
 50.57969	 6.11000	      -0.16879	3.38657
 50.62974	 6.12000	      -0.16873	3.38658
 50.67978	 6.13000	      -0.16886	3.38659
 50.72982	 6.14000	      -0.16876	3.38660
 50.77989	 6.15000	      -0.16867	3.38662
 50.82992	 6.16000	      -0.16867	3.38663
 50.87995	 6.17000	      -0.16866	3.38664
 50.93003	 6.18000	      -0.16872	3.38665
 50.98005	 6.19000	      -0.16870	3.38666
 51.03007	 6.20000	      -0.16892	3.38667
 51.08010	 6.21000	      -0.16896	3.38668
 51.13013	 6.22000	      -0.16887	3.38669
 51.18015	 6.23000	      -0.16886	3.38670
 51.23018	 6.24000	      -0.16885	3.38671
 51.28015	 6.25000	      -0.16899	3.38672
 51.33011	 6.26000	      -0.16899	3.38673
 51.38009	 6.27000	      -0.16903	3.38674
 51.43007	 6.28000	      -0.16916	3.38675
 51.48003	 6.29000	      -0.16918	3.38676
 51.53000	 6.30000	      -0.16922	3.38677
 51.58001	 6.31000	      -0.16940	3.38678
 51.63005	 6.32000	      -0.16942	3.38679
 51.68008	 6.33000	      -0.16948	3.38680
 51.73007	 6.34000	      -0.16948	3.38681
 51.78005	 6.35000	      -0.16946	3.38682
 51.83007	 6.36000	      -0.16951	3.38683
 51.88009	 6.37000	      -0.16961	3.38684
 51.93013	 6.38000	      -0.16968	3.38685
 51.98022	 6.39000	      -0.16967	3.38686
 52.03021	 6.40000	      -0.16976	3.38687
 52.08019	 6.41000	      -0.16980	3.38688
 52.13016	 6.42000	      -0.16955	3.38689
 52.18016	 6.43000	      -0.16970	3.38690
 52.23020	 6.44000	      -0.16974	3.38691
 52.28021	 6.45000	      -0.16978	3.38691
 52.33023	 6.46000	      -0.16975	3.38692
 52.38030	 6.47000	      -0.16968	3.38693
 52.43034	 6.48000	      -0.16964	3.38694
 52.48037	 6.49000	      -0.16962	3.38695
 52.53036	 6.50000	      -0.16973	3.38696
 52.58037	 6.51000	      -0.16973	3.38697
 52.63034	 6.52000	      -0.16979	3.38698
 52.68033	 6.53000	      -0.16985	3.38698
 52.73031	 6.54000	      -0.16980	3.38699
 52.78024	 6.55000	      -0.16998	3.38700
 52.83021	 6.56000	      -0.16999	3.38701
 52.88017	 6.57000	      -0.17002	3.38702
 52.93011	 6.58000	      -0.16992	3.38703
 52.98007	 6.59000	      -0.16984	3.38703
 53.03005	 6.60000	      -0.16973	3.38704
 53.08003	 6.61000	      -0.16974	3.38705
 53.13000	 6.62000	      -0.17008	3.38706
 53.17996	 6.63000	      -0.17004	3.38707
 53.22993	 6.64000	      -0.17005	3.38707
 53.27991	 6.65000	      -0.16984	3.38708
 53.32993	 6.66000	      -0.16980	3.38709
 53.37986	 6.67000	      -0.16991	3.38710
 53.42984	 6.68000	      -0.17009	3.38710
 53.47986	 6.69000	      -0.17009	3.38711
 53.52987	 6.70000	      -0.17006	3.38712
 53.57990	 6.71000	      -0.16998	3.38713
 53.62989	 6.72000	      -0.16997	3.38713
 53.67991	 6.73000	      -0.16998	3.38714
 53.72995	 6.74000	      -0.16997	3.38715
 53.77997	 6.75000	      -0.16987	3.38716
 53.82997	 6.76000	      -0.17013	3.38716
 53.88000	 6.77000	      -0.17009	3.38717
 53.92998	 6.78000	      -0.17004	3.38718
 53.98001	 6.79000	      -0.16998	3.38718
 54.03002	 6.80000	      -0.16985	3.38719
 54.08002	 6.81000	      -0.16986	3.38720
 54.13005	 6.82000	      -0.16988	3.38720
 54.18006	 6.83000	      -0.16999	3.38721
 54.23010	 6.84000	      -0.17018	3.38722
 54.28010	 6.85000	      -0.17014	3.38722
 54.33011	 6.86000	      -0.17004	3.38723
 54.38013	 6.87000	      -0.17005	3.38724
 54.43011	 6.88000	      -0.16999	3.38724
 54.48011	 6.89000	      -0.16995	3.38725
 54.53007	 6.90000	      -0.16991	3.38725
 54.58009	 6.91000	      -0.16995	3.38726
 54.63008	 6.92000	      -0.17002	3.38727
 54.68015	 6.93000	      -0.17006	3.38727
 54.73018	 6.94000	      -0.16999	3.38728
 54.78022	 6.95000	      -0.17014	3.38728
 54.83028	 6.96000	      -0.17013	3.38729
 54.88029	 6.97000	      -0.17011	3.38730
 54.93034	 6.98000	      -0.17016	3.38730
 54.98039	 6.99000	      -0.17014	3.38731
 55.03039	 7.00000	      -0.17016	3.38731
 55.08040	 7.01000	      -0.17013	3.38732
 55.13041	 7.02000	      -0.17014	3.38732
 55.18041	 7.03000	      -0.17006	3.38733
 55.23043	 7.04000	      -0.16999	3.38733
 55.28044	 7.05000	      -0.16999	3.38734
 55.33048	 7.06000	      -0.17003	3.38734
 55.38050	 7.07000	      -0.16999	3.38735
 55.43059	 7.08000	      -0.17001	3.38735
 55.48059	 7.09000	      -0.17005	3.38736
 55.53056	 7.10000	      -0.17005	3.38736
 55.58054	 7.11000	      -0.17008	3.38737
 55.63052	 7.12000	      -0.17012	3.38737
 55.68052	 7.13000	      -0.17011	3.38738
 55.73051	 7.14000	      -0.17007	3.38738
 55.78054	 7.15000	      -0.17007	3.38739
 55.83054	 7.16000	      -0.17006	3.38739
 55.88054	 7.17000	      -0.17014	3.38740
 55.93054	 7.18000	      -0.17007	3.38740
 55.98051	 7.19000	      -0.16996	3.38740
 56.03049	 7.20000	      -0.16996	3.38741
 56.08047	 7.21000	      -0.17000	3.38741
 56.13049	 7.22000	      -0.17010	3.38742
 56.18049	 7.23000	      -0.17014	3.38742
 56.23048	 7.24000	      -0.17002	3.38742
 56.28046	 7.25000	      -0.17010	3.38743
 56.33044	 7.26000	      -0.17021	3.38743
 56.38043	 7.27000	      -0.17024	3.38744
 56.43043	 7.28000	      -0.17021	3.38744
 56.48043	 7.29000	      -0.17027	3.38744
 56.53039	 7.30000	      -0.17026	3.38745
 56.58047	 7.31000	      -0.17030	3.38745
 56.63051	 7.32000	      -0.17043	3.38745
 56.68053	 7.33000	      -0.17051	3.38746
 56.73054	 7.34000	      -0.17051	3.38746
 56.78057	 7.35000	      -0.17034	3.38746
 56.83059	 7.36000	      -0.17029	3.38747
 56.88062	 7.37000	      -0.17035	3.38747
 56.93064	 7.38000	      -0.17035	3.38747
 56.98064	 7.39000	      -0.17039	3.38748
 57.03066	 7.40000	      -0.17050	3.38748
 57.08071	 7.41000	      -0.17054	3.38748
 57.13077	 7.42000	      -0.17057	3.38749
 57.18083	 7.43000	      -0.17051	3.38749
 57.23089	 7.44000	      -0.17048	3.38749
 57.28093	 7.45000	      -0.17043	3.38749
 57.33095	 7.46000	      -0.17044	3.38750
 57.38100	 7.47000	      -0.17052	3.38750
 57.43103	 7.48000	      -0.17062	3.38750
 57.48107	 7.49000	      -0.17056	3.38750
 57.53107	 7.50000	      -0.17059	3.38750
 57.58107	 7.51000	      -0.17067	3.38751
 57.63108	 7.52000	      -0.17069	3.38751
 57.68108	 7.53000	      -0.17059	3.38751
 57.73107	 7.54000	      -0.17059	3.38751
 57.78102	 7.55000	      -0.17060	3.38752
 57.83100	 7.56000	      -0.17058	3.38752
 57.88103	 7.57000	      -0.17053	3.38752
 57.93105	 7.58000	      -0.17055	3.38752
 57.98112	 7.59000	      -0.17053	3.38752
 58.03111	 7.60000	      -0.17054	3.38752
 58.08119	 7.61000	      -0.17053	3.38753
 58.13125	 7.62000	      -0.17052	3.38753
 58.18128	 7.63000	      -0.17048	3.38753
 58.23133	 7.64000	      -0.17048	3.38753
 58.28134	 7.65000	      -0.17045	3.38753
 58.33139	 7.66000	      -0.17046	3.38753
 58.38144	 7.67000	      -0.17034	3.38753
 58.43144	 7.68000	      -0.17026	3.38754
 58.48143	 7.69000	      -0.17030	3.38754
 58.53141	 7.70000	      -0.17027	3.38754
 58.58144	 7.71000	      -0.17028	3.38754
 58.63139	 7.72000	      -0.17033	3.38754
 58.68132	 7.73000	      -0.17025	3.38754
 58.73126	 7.74000	      -0.17010	3.38754
 58.78121	 7.75000	      -0.17003	3.38754
 58.83115	 7.76000	      -0.16998	3.38754
 58.88107	 7.77000	      -0.16992	3.38754
 58.93102	 7.78000	      -0.16993	3.38754
 58.98100	 7.79000	      -0.16994	3.38754
 59.03097	 7.80000	      -0.16999	3.38754
 59.08093	 7.81000	      -0.17000	3.38754
 59.13090	 7.82000	      -0.17017	3.38755
 59.18088	 7.83000	      -0.17007	3.38755
 59.23080	 7.84000	      -0.16998	3.38755
 59.28082	 7.85000	      -0.16996	3.38755
 59.33080	 7.86000	      -0.17006	3.38755
 59.38077	 7.87000	      -0.17016	3.38755
 59.43074	 7.88000	      -0.17027	3.38755
 59.48068	 7.89000	      -0.17024	3.38755
 59.53069	 7.90000	      -0.17022	3.38754
 59.58072	 7.91000	      -0.17007	3.38754
 59.63079	 7.92000	      -0.17000	3.38754
 59.68083	 7.93000	      -0.17001	3.38754
 59.73090	 7.94000	      -0.17005	3.38754
 59.78097	 7.95000	      -0.17012	3.38754
 59.83102	 7.96000	      -0.17015	3.38754
 59.88110	 7.97000	      -0.17018	3.38754
 59.93115	 7.98000	      -0.17021	3.38754
 59.98118	 7.99000	      -0.17013	3.38754
 60.03120	 8.00000	      -0.17009	3.38754
 60.08124	 8.01000	      -0.17000	3.38754
 60.13125	 8.02000	      -0.17015	3.38754
 60.18127	 8.03000	      -0.16993	3.38754
 60.23126	 8.04000	      -0.16994	3.38754
 60.28128	 8.05000	      -0.17005	3.38753
 60.33130	 8.06000	      -0.17003	3.38753
 60.38131	 8.07000	      -0.17014	3.38753
 60.43133	 8.08000	      -0.17015	3.38753
 60.48134	 8.09000	      -0.17012	3.38753
 60.53136	 8.10000	      -0.17005	3.38753
 60.58136	 8.11000	      -0.17018	3.38753
 60.63136	 8.12000	      -0.17011	3.38752
 60.68137	 8.13000	      -0.17006	3.38752
 60.73139	 8.14000	      -0.17004	3.38752
 60.78141	 8.15000	      -0.17013	3.38752
 60.83141	 8.16000	      -0.17010	3.38752
 60.88141	 8.17000	      -0.17009	3.38751
 60.93148	 8.18000	      -0.17008	3.38751
 60.98148	 8.19000	      -0.17000	3.38751
 61.03152	 8.20000	      -0.17001	3.38751
 61.08158	 8.21000	      -0.17019	3.38751
 61.13162	 8.22000	      -0.17004	3.38750
 61.18159	 8.23000	      -0.17000	3.38750
 61.23159	 8.24000	      -0.16994	3.38750
 61.28159	 8.25000	      -0.16988	3.38750
 61.33156	 8.26000	      -0.16995	3.38749
 61.38157	 8.27000	      -0.16990	3.38749
 61.43162	 8.28000	      -0.16972	3.38749
 61.48164	 8.29000	      -0.16973	3.38749
 61.53169	 8.30000	      -0.16976	3.38748
 61.58172	 8.31000	      -0.16981	3.38748
 61.63171	 8.32000	      -0.16974	3.38748
 61.68172	 8.33000	      -0.16961	3.38747
 61.73167	 8.34000	      -0.16958	3.38747
 61.78160	 8.35000	      -0.16968	3.38747
 61.83154	 8.36000	      -0.16968	3.38747
 61.88147	 8.37000	      -0.16964	3.38746
 61.93138	 8.38000	      -0.16966	3.38746
 61.98132	 8.39000	      -0.16971	3.38746
 62.03123	 8.40000	      -0.16964	3.38745
 62.08119	 8.41000	      -0.16970	3.38745
 62.13107	 8.42000	      -0.16976	3.38745
 62.18093	 8.43000	      -0.16975	3.38744
 62.23079	 8.44000	      -0.16984	3.38744
 62.28068	 8.45000	      -0.16982	3.38743
 62.33057	 8.46000	      -0.16977	3.38743
 62.38045	 8.47000	      -0.16979	3.38743
 62.43039	 8.48000	      -0.16978	3.38742
 62.48035	 8.49000	      -0.16978	3.38742
 62.53034	 8.50000	      -0.16981	3.38741
 62.58028	 8.51000	      -0.16985	3.38741
 62.63023	 8.52000	      -0.16979	3.38741
 62.68020	 8.53000	      -0.16984	3.38740
 62.73016	 8.54000	      -0.16985	3.38740
 62.78014	 8.55000	      -0.16992	3.38739
 62.83011	 8.56000	      -0.16992	3.38739
 62.88009	 8.57000	      -0.16995	3.38738
 62.93008	 8.58000	      -0.16992	3.38738
 62.98006	 8.59000	      -0.16986	3.38738
 63.03010	 8.60000	      -0.16982	3.38737
 63.08004	 8.61000	      -0.16985	3.38737
 63.13000	 8.62000	      -0.16995	3.38736
 63.18001	 8.63000	      -0.17003	3.38736
 63.23003	 8.64000	      -0.17004	3.38735
 63.28006	 8.65000	      -0.16999	3.38735
 63.33007	 8.66000	      -0.16998	3.38734
 63.38008	 8.67000	      -0.17002	3.38734
 63.43008	 8.68000	      -0.17010	3.38733
 63.48007	 8.69000	      -0.17018	3.38733
 63.53005	 8.70000	      -0.17019	3.38732
 63.58003	 8.71000	      -0.17019	3.38732
 63.63002	 8.72000	      -0.17053	3.38731
 63.68004	 8.73000	      -0.17062	3.38730
 63.73003	 8.74000	      -0.17052	3.38730
 63.78008	 8.75000	      -0.17052	3.38729
 63.83013	 8.76000	      -0.17054	3.38729
 63.88020	 8.77000	      -0.17069	3.38728
 63.93025	 8.78000	      -0.17098	3.38728
 63.98025	 8.79000	      -0.17092	3.38727
 64.03028	 8.80000	      -0.17086	3.38726
 64.08027	 8.81000	      -0.17089	3.38726
 64.13025	 8.82000	      -0.17088	3.38725
 64.18034	 8.83000	      -0.17097	3.38725
 64.23041	 8.84000	      -0.17106	3.38724
 64.28050	 8.85000	      -0.17104	3.38723
 64.33059	 8.86000	      -0.17099	3.38723
 64.38071	 8.87000	      -0.17103	3.38722
 64.43079	 8.88000	      -0.17101	3.38722
 64.48079	 8.89000	      -0.17091	3.38721
 64.53080	 8.90000	      -0.17111	3.38720
 64.58083	 8.91000	      -0.17116	3.38720
 64.63085	 8.92000	      -0.17126	3.38719
 64.68088	 8.93000	      -0.17124	3.38718
 64.73093	 8.94000	      -0.17117	3.38718
 64.78095	 8.95000	      -0.17116	3.38717
 64.83097	 8.96000	      -0.17116	3.38716
 64.88100	 8.97000	      -0.17116	3.38715
 64.93103	 8.98000	      -0.17112	3.38715
 64.98104	 8.99000	      -0.17117	3.38714
 65.03107	 9.00000	      -0.17122	3.38713
 65.08105	 9.01000	      -0.17117	3.38713
 65.13107	 9.02000	      -0.17118	3.38712
 65.18108	 9.03000	      -0.17119	3.38711
 65.23107	 9.04000	      -0.17121	3.38710
 65.28111	 9.05000	      -0.17116	3.38710
 65.33111	 9.06000	      -0.17111	3.38709
 65.38113	 9.07000	      -0.17109	3.38708
 65.43108	 9.08000	      -0.17103	3.38707
 65.48102	 9.09000	      -0.17112	3.38707
 65.53102	 9.10000	      -0.17107	3.38706
 65.58100	 9.11000	      -0.17115	3.38705
 65.63098	 9.12000	      -0.17115	3.38704
 65.68095	 9.13000	      -0.17146	3.38703
 65.73093	 9.14000	      -0.17154	3.38703
 65.78093	 9.15000	      -0.17148	3.38702
 65.83092	 9.16000	      -0.17138	3.38701
 65.88094	 9.17000	      -0.17130	3.38700
 65.93092	 9.18000	      -0.17128	3.38699
 65.98093	 9.19000	      -0.17138	3.38699
 66.03097	 9.20000	      -0.17128	3.38698
 66.08097	 9.21000	      -0.17128	3.38697
 66.13102	 9.22000	      -0.17131	3.38696
 66.18107	 9.23000	      -0.17132	3.38695
 66.23110	 9.24000	      -0.17131	3.38694
 66.28111	 9.25000	      -0.17125	3.38693
 66.33107	 9.26000	      -0.17129	3.38693
 66.38106	 9.27000	      -0.17127	3.38692
 66.43105	 9.28000	      -0.17121	3.38691
 66.48102	 9.29000	      -0.17111	3.38690
 66.53100	 9.30000	      -0.17107	3.38689
 66.58102	 9.31000	      -0.17099	3.38688
 66.63103	 9.32000	      -0.17094	3.38687
 66.68108	 9.33000	      -0.17079	3.38686
 66.73110	 9.34000	      -0.17086	3.38685
 66.78113	 9.35000	      -0.17083	3.38684
 66.83113	 9.36000	      -0.17070	3.38683
 66.88111	 9.37000	      -0.17068	3.38682
 66.93111	 9.38000	      -0.17057	3.38682
 66.98111	 9.39000	      -0.17051	3.38681
 67.03108	 9.40000	      -0.17058	3.38680
 67.08103	 9.41000	      -0.17057	3.38679
 67.13107	 9.42000	      -0.17057	3.38678
 67.18106	 9.43000	      -0.17044	3.38677
 67.23105	 9.44000	      -0.17038	3.38676
 67.28103	 9.45000	      -0.17030	3.38675
 67.33100	 9.46000	      -0.17015	3.38674
 67.38102	 9.47000	      -0.16995	3.38673
 67.43102	 9.48000	      -0.16971	3.38672
 67.48107	 9.49000	      -0.16968	3.38671
 67.53110	 9.50000	      -0.16957	3.38670
 67.58109	 9.51000	      -0.16952	3.38669
 67.63111	 9.52000	      -0.16960	3.38668
 67.68113	 9.53000	      -0.16956	3.38667
 67.73113	 9.54000	      -0.16946	3.38665
 67.78113	 9.55000	      -0.16946	3.38664
 67.83107	 9.56000	      -0.16942	3.38663
 67.88104	 9.57000	      -0.16935	3.38662
 67.93102	 9.58000	      -0.16917	3.38661
 67.98103	 9.59000	      -0.16904	3.38660
 68.03103	 9.60000	      -0.16891	3.38659
 68.08103	 9.61000	      -0.16870	3.38658
 68.13100	 9.62000	      -0.16852	3.38657
 68.18098	 9.63000	      -0.16844	3.38656
 68.23097	 9.64000	      -0.16843	3.38655
 68.28098	 9.65000	      -0.16846	3.38653
 68.33105	 9.66000	      -0.16821	3.38652
 68.38109	 9.67000	      -0.16817	3.38651
 68.43111	 9.68000	      -0.16820	3.38650
 68.48113	 9.69000	      -0.16782	3.38649
 68.53121	 9.70000	      -0.16784	3.38648
 68.58124	 9.71000	      -0.16769	3.38647
 68.63125	 9.72000	      -0.16762	3.38645
 68.68127	 9.73000	      -0.16743	3.38644
 68.73128	 9.74000	      -0.16731	3.38643
 68.78132	 9.75000	      -0.16716	3.38642
 68.83131	 9.76000	      -0.16714	3.38641
 68.88139	 9.77000	      -0.16679	3.38640
 68.93143	 9.78000	      -0.16689	3.38638
 68.98145	 9.79000	      -0.16692	3.38637
 69.03148	 9.80000	      -0.16668	3.38636
 69.08148	 9.81000	      -0.16652	3.38635
 69.13151	 9.82000	      -0.16641	3.38634
 69.18147	 9.83000	      -0.16633	3.38632
 69.23146	 9.84000	      -0.16608	3.38631
 69.28146	 9.85000	      -0.16589	3.38630
 69.33146	 9.86000	      -0.16562	3.38629
 69.38145	 9.87000	      -0.16557	3.38627
 69.43144	 9.88000	      -0.16551	3.38626
 69.48146	 9.89000	      -0.16515	3.38625
 69.53144	 9.90000	      -0.16505	3.38623
 69.58145	 9.91000	      -0.16491	3.38622
 69.63146	 9.92000	      -0.16478	3.38621
 69.68143	 9.93000	      -0.16465	3.38620
 69.73144	 9.94000	      -0.16445	3.38618
 69.78143	 9.95000	      -0.16428	3.38617
 69.83143	 9.96000	      -0.16391	3.38616
 69.88144	 9.97000	      -0.16367	3.38614
 69.93149	 9.98000	      -0.16355	3.38613
 69.98148	 9.99000	      -0.16341	3.38612
 70.03141	10.00000	      -0.16315	3.38610
 70.08136	10.01000	      -0.16292	3.38609
 70.13134	10.02000	      -0.16263	3.38608
 70.18133	10.03000	      -0.16225	3.38606
 70.23131	10.04000	      -0.16204	3.38605
 70.28130	10.05000	      -0.16198	3.38604
 70.33129	10.06000	      -0.16180	3.38602
 70.38127	10.07000	      -0.16139	3.38601
 70.43126	10.08000	      -0.16105	3.38600
 70.48128	10.09000	      -0.16084	3.38598
 70.53126	10.10000	      -0.16067	3.38597
 70.58124	10.11000	      -0.16047	3.38595
 70.63125	10.12000	      -0.16027	3.38594
 70.68127	10.13000	      -0.16004	3.38593
 70.73128	10.14000	      -0.15995	3.38591
 70.78124	10.15000	      -0.15973	3.38590
 70.83125	10.16000	      -0.15952	3.38588
 70.88124	10.17000	      -0.15931	3.38587
 70.93125	10.18000	      -0.15914	3.38585
 70.98126	10.19000	      -0.15884	3.38584
 71.03129	10.20000	      -0.15855	3.38582
 71.08136	10.21000	      -0.15819	3.38581
 71.13134	10.22000	      -0.15806	3.38580
 71.18134	10.23000	      -0.15781	3.38578
 71.23138	10.24000	      -0.15759	3.38577
 71.28139	10.25000	      -0.15733	3.38575
 71.33143	10.26000	      -0.15715	3.38574
 71.38143	10.27000	      -0.15693	3.38572
 71.43146	10.28000	      -0.15671	3.38571
 71.48146	10.29000	      -0.15628	3.38569
 71.53146	10.30000	      -0.15611	3.38568
 71.58147	10.31000	      -0.15587	3.38566
 71.63151	10.32000	      -0.15553	3.38565
 71.68154	10.33000	      -0.15533	3.38563
 71.73157	10.34000	      -0.15499	3.38561
 71.78159	10.35000	      -0.15479	3.38560
 71.83161	10.36000	      -0.15430	3.38558
 71.88162	10.37000	      -0.15405	3.38557
 71.93164	10.38000	      -0.15378	3.38555
 71.98162	10.39000	      -0.15361	3.38554
 72.03166	10.40000	      -0.15329	3.38552
 72.08171	10.41000	      -0.15280	3.38550
 72.13177	10.42000	      -0.15244	3.38549
 72.18180	10.43000	      -0.15212	3.38547
 72.23184	10.44000	      -0.15176	3.38546
 72.28181	10.45000	      -0.15148	3.38544
 72.33179	10.46000	      -0.15110	3.38542
 72.38179	10.47000	      -0.15071	3.38541
 72.43180	10.48000	      -0.15031	3.38539
 72.48178	10.49000	      -0.14995	3.38538
 72.53174	10.50000	      -0.14974	3.38536
 72.58169	10.51000	      -0.14952	3.38534
 72.63164	10.52000	      -0.14917	3.38533
 72.68156	10.53000	      -0.14885	3.38531
 72.73152	10.54000	      -0.14854	3.38529
 72.78152	10.55000	      -0.14820	3.38528
 72.83151	10.56000	      -0.14770	3.38526
 72.88150	10.57000	      -0.14744	3.38524
 72.93148	10.58000	      -0.14699	3.38523
 72.98144	10.59000	      -0.14672	3.38521
 73.03141	10.60000	      -0.14619	3.38519
 73.08137	10.61000	      -0.14572	3.38517
 73.13138	10.62000	      -0.14551	3.38516
 73.18144	10.63000	      -0.14507	3.38514
 73.23146	10.64000	      -0.14463	3.38512
 73.28147	10.65000	      -0.14430	3.38511
 73.33149	10.66000	      -0.14361	3.38509
 73.38147	10.67000	      -0.14324	3.38507
 73.43146	10.68000	      -0.14276	3.38505
 73.48145	10.69000	      -0.14225	3.38504
 73.53143	10.70000	      -0.14178	3.38502
 73.58143	10.71000	      -0.14134	3.38500
 73.63139	10.72000	      -0.14093	3.38498
 73.68137	10.73000	      -0.14082	3.38497
 73.73134	10.74000	      -0.14024	3.38495
 73.78131	10.75000	      -0.13970	3.38493
 73.83131	10.76000	      -0.13928	3.38491
 73.88132	10.77000	      -0.13893	3.38489
 73.93134	10.78000	      -0.13864	3.38488
 73.98131	10.79000	      -0.13831	3.38486
 74.03128	10.80000	      -0.13764	3.38484
 74.08125	10.81000	      -0.13719	3.38482
 74.13125	10.82000	      -0.13668	3.38480
 74.18127	10.83000	      -0.13622	3.38478
 74.23128	10.84000	      -0.13580	3.38477
 74.28129	10.85000	      -0.13523	3.38475
 74.33138	10.86000	      -0.13463	3.38473
 74.38139	10.87000	      -0.13408	3.38471
 74.43138	10.88000	      -0.13367	3.38469
 74.48139	10.89000	      -0.13314	3.38467
 74.53139	10.90000	      -0.13254	3.38465
 74.58144	10.91000	      -0.13207	3.38463
 74.63149	10.92000	      -0.13167	3.38462
 74.68151	10.93000	      -0.13114	3.38460
 74.73154	10.94000	      -0.13063	3.38458
 74.78155	10.95000	      -0.13011	3.38456
 74.83159	10.96000	      -0.12959	3.38454
 74.88158	10.97000	      -0.12897	3.38452
 74.93156	10.98000	      -0.12819	3.38450
 74.98157	10.99000	      -0.12784	3.38448
 75.03162	11.00000	      -0.12714	3.38446
 75.08163	11.01000	      -0.12644	3.38444
 75.13162	11.02000	      -0.12575	3.38442
 75.18161	11.03000	      -0.12513	3.38440
 75.23161	11.04000	      -0.12455	3.38438
 75.28164	11.05000	      -0.12397	3.38436
 75.33166	11.06000	      -0.12329	3.38434
 75.38169	11.07000	      -0.12260	3.38432
 75.43174	11.08000	      -0.12179	3.38430
 75.48178	11.09000	      -0.12113	3.38428
 75.53182	11.10000	      -0.12056	3.38426
 75.58183	11.11000	      -0.11991	3.38424
 75.63184	11.12000	      -0.11913	3.38422
 75.68186	11.13000	      -0.11847	3.38420
 75.73185	11.14000	      -0.11777	3.38418
 75.78186	11.15000	      -0.11709	3.38416
 75.83187	11.16000	      -0.11651	3.38414
 75.88184	11.17000	      -0.11576	3.38412
 75.93182	11.18000	      -0.11512	3.38410
 75.98182	11.19000	      -0.11439	3.38408
 76.03182	11.20000	      -0.11363	3.38406
 76.08186	11.21000	      -0.11283	3.38404
 76.13189	11.22000	      -0.11210	3.38402
 76.18191	11.23000	      -0.11126	3.38400
 76.23185	11.24000	      -0.11049	3.38398
 76.28184	11.25000	      -0.10973	3.38396
 76.33182	11.26000	      -0.10891	3.38394
 76.38177	11.27000	      -0.10790	3.38391
 76.43177	11.28000	      -0.10716	3.38389
 76.48175	11.29000	      -0.10641	3.38387
 76.53177	11.30000	      -0.10527	3.38385
 76.58177	11.31000	      -0.10442	3.38383
 76.63172	11.32000	      -0.10361	3.38381
 76.68172	11.33000	      -0.10270	3.38379
 76.73177	11.34000	      -0.10173	3.38377
 76.78177	11.35000	      -0.10077	3.38374
 76.83179	11.36000	-9.984186e-002	3.38372
 76.88179	11.37000	-9.896254e-002	3.38370
 76.93180	11.38000	-9.801263e-002	3.38368
 76.98184	11.39000	-9.714495e-002	3.38366
 77.03185	11.40000	-9.621876e-002	3.38364
 77.08185	11.41000	-9.531041e-002	3.38361
 77.13182	11.42000	-9.411614e-002	3.38359
 77.18182	11.43000	-9.311819e-002	3.38357
 77.23175	11.44000	-9.201419e-002	3.38355
 77.28171	11.45000	-9.108772e-002	3.38353
 77.33166	11.46000	-9.015635e-002	3.38350
 77.38165	11.47000	-8.905857e-002	3.38348
 77.43166	11.48000	-8.802642e-002	3.38346
 77.48162	11.49000	-8.696094e-002	3.38344
 77.53166	11.50000	-8.589716e-002	3.38341
 77.58168	11.51000	-8.485959e-002	3.38339
 77.63175	11.52000	-8.379500e-002	3.38337
 77.68178	11.53000	-8.264958e-002	3.38335
 77.73185	11.54000	-8.147403e-002	3.38332
 77.78193	11.55000	-8.025851e-002	3.38330
 77.83195	11.56000	-7.926275e-002	3.38328
 77.88200	11.57000	-7.821861e-002	3.38325
 77.93205	11.58000	-7.705177e-002	3.38323
 77.98206	11.59000	-7.584129e-002	3.38321
 78.03205	11.60000	-7.441119e-002	3.38319
 78.08209	11.61000	-7.324570e-002	3.38316
 78.13208	11.62000	-7.213729e-002	3.38314
 78.18209	11.63000	-7.090687e-002	3.38312
 78.23210	11.64000	-6.964560e-002	3.38309
 78.28208	11.65000	-6.843388e-002	3.38307
 78.33207	11.66000	-6.709880e-002	3.38305
 78.38206	11.67000	-6.568288e-002	3.38302
 78.43202	11.68000	-6.436100e-002	3.38300
 78.48196	11.69000	-6.306742e-002	3.38298
 78.53192	11.70000	-6.170572e-002	3.38295
 78.58188	11.71000	-6.042918e-002	3.38293
 78.63185	11.72000	-5.902321e-002	3.38290
 78.68185	11.73000	-5.762358e-002	3.38288
 78.73182	11.74000	-5.625910e-002	3.38286
 78.78180	11.75000	-5.469399e-002	3.38283
 78.83180	11.76000	-5.319674e-002	3.38281
 78.88177	11.77000	-5.179215e-002	3.38279
 78.93175	11.78000	-5.032343e-002	3.38276
 78.98171	11.79000	-4.884831e-002	3.38274
 79.03169	11.80000	-4.716616e-002	3.38271
 79.08166	11.81000	-4.550996e-002	3.38269
 79.13167	11.82000	-4.381771e-002	3.38266
 79.18169	11.83000	-4.216312e-002	3.38264
 79.23172	11.84000	-4.060502e-002	3.38262
 79.28173	11.85000	-3.892512e-002	3.38259
 79.33175	11.86000	-3.709403e-002	3.38257
 79.38175	11.87000	-3.525827e-002	3.38254
 79.43172	11.88000	-3.355543e-002	3.38252
 79.48171	11.89000	-3.169062e-002	3.38249
 79.53172	11.90000	-2.982577e-002	3.38247
 79.58165	11.91000	-2.805805e-002	3.38244
 79.63161	11.92000	-2.628627e-002	3.38242
 79.68156	11.93000	-2.439409e-002	3.38239
 79.73151	11.94000	-2.250243e-002	3.38237
 79.78145	11.95000	-2.061540e-002	3.38234
 79.83136	11.96000	-1.866379e-002	3.38232
 79.88132	11.97000	-1.678267e-002	3.38229
 79.93131	11.98000	-1.477101e-002	3.38227
 79.98131	11.99000	-1.283509e-002	3.38224
 80.03136	12.00000	-1.078098e-002	3.38222
 80.08139	12.01000	-8.713581e-003	3.38219
 80.13143	12.02000	-6.544463e-003	3.38217
 80.18145	12.03000	-4.518401e-003	3.38214
 80.23149	12.04000	-2.199110e-003	3.38211
 80.28157	12.05000	 1.190727e-005	3.38209
 80.33169	12.06000	 2.227894e-003	3.38206
 80.38177	12.07000	 4.514782e-003	3.38204
 80.43187	12.08000	 6.736219e-003	3.38201
 80.48202	12.09000	 9.015490e-003	3.38198
 80.53213	12.10000	 1.135411e-002	3.38196
 80.58223	12.11000	 1.382170e-002	3.38193
 80.63231	12.12000	 1.654257e-002	3.38191
 80.68233	12.13000	 1.915270e-002	3.38188
 80.73241	12.14000	 2.151376e-002	3.38185
 80.78243	12.15000	 2.394158e-002	3.38183
 80.83244	12.16000	 2.683811e-002	3.38180
 80.88243	12.17000	 2.959508e-002	3.38177
 80.93246	12.18000	 3.235397e-002	3.38175
 80.98245	12.19000	 3.529410e-002	3.38172
 81.03248	12.20000	 3.814029e-002	3.38169
 81.08248	12.21000	 4.097164e-002	3.38167
 81.13244	12.22000	 4.386928e-002	3.38164
 81.18244	12.23000	 4.675806e-002	3.38161
 81.23243	12.24000	 4.968071e-002	3.38159
 81.28243	12.25000	 5.270977e-002	3.38156
 81.33248	12.26000	 5.595408e-002	3.38153
 81.38249	12.27000	 5.941485e-002	3.38151
 81.43252	12.28000	 6.274450e-002	3.38148
 81.48249	12.29000	 6.603039e-002	3.38145
 81.53244	12.30000	 6.934415e-002	3.38143
 81.58245	12.31000	 7.275058e-002	3.38140
 81.63248	12.32000	 7.637896e-002	3.38137
 81.68246	12.33000	 7.994233e-002	3.38134
 81.73243	12.34000	 8.344155e-002	3.38132
 81.78244	12.35000	 8.716391e-002	3.38129
 81.83246	12.36000	 9.091179e-002	3.38126
 81.88248	12.37000	 9.464765e-002	3.38123
 81.93252	12.38000	 9.843736e-002	3.38121
 81.98251	12.39000	       0.10257	3.38118
 82.03254	12.40000	       0.10673	3.38115
 82.08250	12.41000	       0.11097	3.38112
 82.13244	12.42000	       0.11489	3.38109
 82.18245	12.43000	       0.11896	3.38107
 82.23243	12.44000	       0.12344	3.38104
 82.28240	12.45000	       0.12782	3.38101
 82.33234	12.46000	       0.13207	3.38098
 82.38231	12.47000	       0.13666	3.38095
 82.43230	12.48000	       0.14116	3.38093
 82.48222	12.49000	       0.14567	3.38090
 82.53218	12.50000	       0.15057	3.38087
 82.58215	12.51000	       0.15548	3.38084
 82.63215	12.52000	       0.16029	3.38081
 82.68212	12.53000	       0.16521	3.38078
 82.73210	12.54000	       0.17019	3.38076
 82.78207	12.55000	       0.17532	3.38073
 82.83205	12.56000	       0.18056	3.38070
 82.88205	12.57000	       0.18596	3.38067
 82.93205	12.58000	       0.19145	3.38064
 82.98205	12.59000	       0.19673	3.38061
 83.03203	12.60000	       0.20240	3.38058
 83.08206	12.61000	       0.20824	3.38055
 83.13203	12.62000	       0.21395	3.38052
 83.18206	12.63000	       0.21999	3.38050
 83.23205	12.64000	       0.22596	3.38047
 83.28209	12.65000	       0.23196	3.38044
 83.33208	12.66000	       0.23822	3.38041
 83.38208	12.67000	       0.24452	3.38038
 83.43207	12.68000	       0.25111	3.38035
 83.48208	12.69000	       0.25756	3.38032
 83.53211	12.70000	       0.26416	3.38029
 83.58212	12.71000	       0.27091	3.38026
 83.63211	12.72000	       0.27778	3.38023
 83.68209	12.73000	       0.28489	3.38020
 83.73215	12.74000	       0.29214	3.38017
 83.78217	12.75000	       0.29915	3.38014
 83.83220	12.76000	       0.30644	3.38011
 83.88219	12.77000	       0.31411	3.38008
 83.93223	12.78000	       0.32161	3.38005
 83.98225	12.79000	       0.32929	3.38002
 84.03225	12.80000	       0.33705	3.37999
 84.08222	12.81000	       0.34497	3.37996
 84.13226	12.82000	       0.35296	3.37993
 84.18229	12.83000	       0.36122	3.37990
 84.23230	12.84000	       0.36942	3.37987
 84.28231	12.85000	       0.37788	3.37984
 84.33230	12.86000	       0.38659	3.37981
 84.38229	12.87000	       0.39536	3.37978
 84.43231	12.88000	       0.40400	3.37975
 84.48234	12.89000	       0.41286	3.37972
 84.53233	12.90000	       0.42185	3.37969
 84.58233	12.91000	       0.43111	3.37966
 84.63231	12.92000	       0.44054	3.37963
 84.68234	12.93000	       0.44991	3.37959
 84.73243	12.94000	       0.45962	3.37956
 84.78249	12.95000	       0.46941	3.37953
 84.83256	12.96000	       0.47924	3.37950
 84.88257	12.97000	       0.48928	3.37947
 84.93259	12.98000	       0.49935	3.37944
 84.98261	12.99000	       0.50967	3.37941
 85.03262	13.00000	       0.52014	3.37938
 85.08261	13.01000	       0.53063	3.37934
 85.13266	13.02000	       0.54114	3.37931
 85.18272	13.03000	       0.55187	3.37928
 85.23277	13.04000	       0.56285	3.37925
 85.28281	13.05000	       0.57399	3.37922
 85.33282	13.06000	       0.58522	3.37919
 85.38284	13.07000	       0.59634	3.37916
 85.43289	13.08000	       0.60758	3.37912
 85.48295	13.09000	       0.61931	3.37909
 85.53300	13.10000	       0.63103	3.37906
 85.58305	13.11000	       0.64270	3.37903
 85.63315	13.12000	       0.65465	3.37900
 85.68319	13.13000	       0.66672	3.37896
 85.73323	13.14000	       0.67873	3.37893
 85.78324	13.15000	       0.69096	3.37890
 85.83321	13.16000	       0.70339	3.37887
 85.88318	13.17000	       0.71572	3.37883
 85.93316	13.18000	       0.72812	3.37880
 85.98311	13.19000	       0.74061	3.37877
 86.03305	13.20000	       0.75321	3.37874
 86.08302	13.21000	       0.76596	3.37871
 86.13302	13.22000	       0.77887	3.37867
 86.18301	13.23000	       0.79188	3.37864
 86.23300	13.24000	       0.80499	3.37861
 86.28299	13.25000	       0.81793	3.37857
 86.33298	13.26000	       0.83081	3.37854
 86.38298	13.27000	       0.84366	3.37851
 86.43297	13.28000	       0.85672	3.37848
 86.48298	13.29000	       0.86991	3.37844
 86.53297	13.30000	       0.88290	3.37841
 86.58298	13.31000	       0.89603	3.37838
 86.63302	13.32000	       0.90935	3.37834
 86.68298	13.33000	       0.92244	3.37831
 86.73292	13.34000	       0.93550	3.37828
 86.78287	13.35000	       0.94857	3.37824
 86.83280	13.36000	       0.96174	3.37821
 86.88276	13.37000	       0.97475	3.37818
 86.93274	13.38000	       0.98787	3.37814
 86.98269	13.39000	       1.00076	3.37811
 87.03269	13.40000	       1.01364	3.37808
 87.08268	13.41000	       1.02647	3.37804
 87.13272	13.42000	       1.03889	3.37801
 87.18270	13.43000	       1.05142	3.37798
 87.23269	13.44000	       1.06408	3.37794
 87.28270	13.45000	       1.07655	3.37791
 87.33269	13.46000	       1.08881	3.37787
 87.38267	13.47000	       1.10076	3.37784
 87.43261	13.48000	       1.11275	3.37781
 87.48258	13.49000	       1.12446	3.37777
 87.53252	13.50000	       1.13615	3.37774
 87.58250	13.51000	       1.14735	3.37770
 87.63241	13.52000	       1.15860	3.37767
 87.68233	13.53000	       1.16988	3.37763
 87.73230	13.54000	       1.18086	3.37760
 87.78228	13.55000	       1.19137	3.37757
 87.83231	13.56000	       1.20181	3.37753
 87.88235	13.57000	       1.21201	3.37750
 87.93236	13.58000	       1.22203	3.37746
 87.98236	13.59000	       1.23156	3.37743
 88.03234	13.60000	       1.24108	3.37739
 88.08236	13.61000	       1.25018	3.37736
 88.13236	13.62000	       1.25912	3.37732
 88.18235	13.63000	       1.26774	3.37729
 88.23233	13.64000	       1.27585	3.37725
 88.28229	13.65000	       1.28380	3.37722
 88.33225	13.66000	       1.29158	3.37718
 88.38224	13.67000	       1.29861	3.37715
 88.43223	13.68000	       1.30551	3.37711
 88.48220	13.69000	       1.31232	3.37708
 88.53218	13.70000	       1.31859	3.37704
 88.58218	13.71000	       1.32462	3.37701
 88.63216	13.72000	       1.33037	3.37697
 88.68213	13.73000	       1.33551	3.37694
 88.73213	13.74000	       1.34041	3.37690
 88.78210	13.75000	       1.34501	3.37686
 88.83211	13.76000	       1.34911	3.37683
 88.88214	13.77000	       1.35306	3.37679
 88.93216	13.78000	       1.35635	3.37676
 88.98220	13.79000	       1.35940	3.37672
 89.03220	13.80000	       1.36200	3.37669
 89.08221	13.81000	       1.36436	3.37665
 89.13221	13.82000	       1.36592	3.37661
 89.18216	13.83000	       1.36747	3.37658
 89.23208	13.84000	       1.36899	3.37654
 89.28200	13.85000	       1.36925	3.37651
 89.33192	13.86000	       1.36967	3.37647
 89.38186	13.87000	       1.36985	3.37643
 89.43179	13.88000	       1.36957	3.37640
 89.48172	13.89000	       1.36884	3.37636
 89.53162	13.90000	       1.36763	3.37632
 89.58153	13.91000	       1.36599	3.37629
 89.63144	13.92000	       1.36404	3.37625
 89.68139	13.93000	       1.36174	3.37621
 89.73136	13.94000	       1.35911	3.37618
 89.78133	13.95000	       1.35623	3.37614
 89.83128	13.96000	       1.35320	3.37610
 89.88123	13.97000	       1.34948	3.37607
 89.93123	13.98000	       1.34520	3.37603
 89.98127	13.99000	       1.34089	3.37599
 90.03134	14.00000	       1.33637	3.37596
 90.08139	14.01000	       1.33116	3.37592
 90.13143	14.02000	       1.32594	3.37588
 90.18140	14.03000	       1.32030	3.37584
 90.23139	14.04000	       1.31420	3.37581
 90.28136	14.05000	       1.30805	3.37577
 90.33133	14.06000	       1.30156	3.37573
 90.38127	14.07000	       1.29469	3.37570
 90.43120	14.08000	       1.28748	3.37566
 90.48114	14.09000	       1.28030	3.37562
 90.53107	14.10000	       1.27249	3.37558
 90.58102	14.11000	       1.26451	3.37554
 90.63095	14.12000	       1.25582	3.37551
 90.68091	14.13000	       1.24730	3.37547
 90.73087	14.14000	       1.23863	3.37543
 90.78089	14.15000	       1.22943	3.37539
 90.83087	14.16000	       1.22044	3.37536
 90.88081	14.17000	       1.21109	3.37532
 90.93077	14.18000	       1.20161	3.37528
 90.98068	14.19000	       1.19159	3.37524
 91.03061	14.20000	       1.18168	3.37520
 91.08057	14.21000	       1.17161	3.37517
 91.13054	14.22000	       1.16113	3.37513
 91.18051	14.23000	       1.15077	3.37509
 91.23051	14.24000	       1.14006	3.37505
 91.28053	14.25000	       1.12947	3.37501
 91.33052	14.26000	       1.11885	3.37497
 91.38052	14.27000	       1.10766	3.37493
 91.43054	14.28000	       1.09642	3.37490
 91.48060	14.29000	       1.08532	3.37486
 91.53062	14.30000	       1.07424	3.37482
 91.58066	14.31000	       1.06299	3.37478
 91.63072	14.32000	       1.05169	3.37474
 91.68076	14.33000	       1.04003	3.37470
 91.73075	14.34000	       1.02844	3.37466
 91.78076	14.35000	       1.01686	3.37462
 91.83077	14.36000	       1.00522	3.37458
 91.88074	14.37000	       0.99355	3.37455
 91.93071	14.38000	       0.98175	3.37451
 91.98063	14.39000	       0.97005	3.37447
 92.03057	14.40000	       0.95825	3.37443
 92.08053	14.41000	       0.94653	3.37439
 92.13046	14.42000	       0.93490	3.37435
 92.18043	14.43000	       0.92321	3.37431
 92.23041	14.44000	       0.91160	3.37427
 92.28040	14.45000	       0.89994	3.37423
 92.33043	14.46000	       0.88835	3.37419
 92.38048	14.47000	       0.87677	3.37415
 92.43054	14.48000	       0.86532	3.37411
 92.48060	14.49000	       0.85388	3.37407
 92.53066	14.50000	       0.84253	3.37403
 92.58069	14.51000	       0.83112	3.37399
 92.63069	14.52000	       0.81974	3.37395
 92.68072	14.53000	       0.80858	3.37391
 92.73072	14.54000	       0.79764	3.37387
 92.78073	14.55000	       0.78656	3.37383
 92.83070	14.56000	       0.77545	3.37379
 92.88070	14.57000	       0.76473	3.37375
 92.93072	14.58000	       0.75393	3.37371
 92.98074	14.59000	       0.74323	3.37367
 93.03079	14.60000	       0.73244	3.37363
 93.08084	14.61000	       0.72196	3.37359
 93.13085	14.62000	       0.71159	3.37355
 93.18087	14.63000	       0.70125	3.37351
 93.23089	14.64000	       0.69123	3.37347
 93.28091	14.65000	       0.68110	3.37343
 93.33093	14.66000	       0.67119	3.37338
 93.38093	14.67000	       0.66146	3.37334
 93.43093	14.68000	       0.65165	3.37330
 93.48092	14.69000	       0.64224	3.37326
 93.53092	14.70000	       0.63253	3.37322
 93.58092	14.71000	       0.62301	3.37318
 93.63092	14.72000	       0.61378	3.37314
 93.68093	14.73000	       0.60456	3.37310
 93.73098	14.74000	       0.59556	3.37306
 93.78104	14.75000	       0.58673	3.37302
 93.83111	14.76000	       0.57792	3.37297
 93.88115	14.77000	       0.56904	3.37293
 93.93120	14.78000	       0.56068	3.37289
 93.98126	14.79000	       0.55219	3.37285
 94.03129	14.80000	       0.54378	3.37281
 94.08130	14.81000	       0.53560	3.37277
 94.13131	14.82000	       0.52755	3.37272
 94.18134	14.83000	       0.51955	3.37268
 94.23133	14.84000	       0.51151	3.37264
 94.28133	14.85000	       0.50378	3.37260
 94.33131	14.86000	       0.49602	3.37256
 94.38127	14.87000	       0.48856	3.37251
 94.43123	14.88000	       0.48099	3.37247
 94.48121	14.89000	       0.47371	3.37243
 94.53123	14.90000	       0.46667	3.37239
 94.58123	14.91000	       0.45977	3.37235
 94.63126	14.92000	       0.45257	3.37230
 94.68129	14.93000	       0.44541	3.37226
 94.73133	14.94000	       0.43876	3.37222
 94.78138	14.95000	       0.43203	3.37218
 94.83143	14.96000	       0.42534	3.37213
 94.88146	14.97000	       0.41880	3.37209
 94.93154	14.98000	       0.41249	3.37205
 94.98157	14.99000	       0.40627	3.37201
 95.03164	15.00000	       0.40018	3.37196
 95.08167	15.01000	       0.39391	3.37192
 95.13169	15.02000	       0.38778	3.37188
 95.18174	15.03000	       0.38185	3.37184
 95.23175	15.04000	       0.37595	3.37179
 95.28173	15.05000	       0.37034	3.37175
 95.33175	15.06000	       0.36472	3.37171
 95.38177	15.07000	       0.35914	3.37166
 95.43180	15.08000	       0.35379	3.37162
 95.48185	15.09000	       0.34837	3.37158
 95.53192	15.10000	       0.34303	3.37153
 95.58195	15.11000	       0.33782	3.37149
 95.63198	15.12000	       0.33289	3.37145
 95.68198	15.13000	       0.32786	3.37140
 95.73198	15.14000	       0.32283	3.37136
 95.78197	15.15000	       0.31799	3.37132
 95.83192	15.16000	       0.31318	3.37127
 95.88186	15.17000	       0.30820	3.37123
 95.93180	15.18000	       0.30345	3.37119
 95.98177	15.19000	       0.29890	3.37114
 96.03174	15.20000	       0.29435	3.37110
 96.08173	15.21000	       0.29000	3.37105
 96.13175	15.22000	       0.28564	3.37101
 96.18175	15.23000	       0.28154	3.37097
 96.23179	15.24000	       0.27724	3.37092
 96.28186	15.25000	       0.27295	3.37088
 96.33190	15.26000	       0.26894	3.37083
 96.38192	15.27000	       0.26493	3.37079
 96.43197	15.28000	       0.26086	3.37075
 96.48200	15.29000	       0.25708	3.37070
 96.53198	15.30000	       0.25327	3.37066
 96.58199	15.31000	       0.24941	3.37061
 96.63198	15.32000	       0.24571	3.37057
 96.68197	15.33000	       0.24216	3.37052
 96.73197	15.34000	       0.23877	3.37048
 96.78196	15.35000	       0.23539	3.37043
 96.83193	15.36000	       0.23192	3.37039
 96.88190	15.37000	       0.22842	3.37034
 96.93189	15.38000	       0.22506	3.37030
 96.98181	15.39000	       0.22166	3.37025
 97.03175	15.40000	       0.21829	3.37021
 97.08172	15.41000	       0.21500	3.37016
 97.13172	15.42000	       0.21178	3.37012
 97.18170	15.43000	       0.20872	3.37007
 97.23170	15.44000	       0.20572	3.37003
 97.28170	15.45000	       0.20268	3.36998
 97.33170	15.46000	       0.19970	3.36994
 97.38169	15.47000	       0.19683	3.36989
 97.43172	15.48000	       0.19385	3.36985
 97.48172	15.49000	       0.19108	3.36980
 97.53172	15.50000	       0.18817	3.36976
 97.58169	15.51000	       0.18549	3.36971
 97.63170	15.52000	       0.18286	3.36967
 97.68173	15.53000	       0.18009	3.36962
 97.73174	15.54000	       0.17737	3.36957
 97.78172	15.55000	       0.17467	3.36953
 97.83174	15.56000	       0.17214	3.36948
 97.88173	15.57000	       0.16964	3.36944
 97.93177	15.58000	       0.16711	3.36939
 97.98179	15.59000	       0.16466	3.36935
 98.03182	15.60000	       0.16218	3.36930
 98.08184	15.61000	       0.15993	3.36925
 98.13180	15.62000	       0.15750	3.36921
 98.18179	15.63000	       0.15530	3.36916
 98.23177	15.64000	       0.15306	3.36911
 98.28174	15.65000	       0.15088	3.36907
 98.33169	15.66000	       0.14862	3.36902
 98.38171	15.67000	       0.14632	3.36898
 98.43175	15.68000	       0.14428	3.36893
 98.48175	15.69000	       0.14220	3.36888
 98.53172	15.70000	       0.14003	3.36884
 98.58176	15.71000	       0.13797	3.36879
 98.63175	15.72000	       0.13594	3.36874
 98.68177	15.73000	       0.13395	3.36870
 98.73182	15.74000	       0.13205	3.36865
 98.78183	15.75000	       0.13016	3.36860
 98.83189	15.76000	       0.12820	3.36856
 98.88191	15.77000	       0.12649	3.36851
 98.93198	15.78000	       0.12469	3.36846
 98.98207	15.79000	       0.12275	3.36841
 99.03211	15.80000	       0.12109	3.36837
 99.08218	15.81000	       0.11939	3.36832
 99.13220	15.82000	       0.11726	3.36827
 99.18221	15.83000	       0.11562	3.36822
 99.23223	15.84000	       0.11400	3.36818
 99.28223	15.85000	       0.11223	3.36813
 99.33229	15.86000	       0.11063	3.36808
 99.38232	15.87000	       0.10895	3.36803
 99.43236	15.88000	       0.10744	3.36799
 99.48237	15.89000	       0.10589	3.36794
 99.53234	15.90000	       0.10424	3.36789
 99.58238	15.91000	       0.10266	3.36784
 99.63239	15.92000	       0.10108	3.36780
 99.68236	15.93000	 9.947887e-002	3.36775
 99.73233	15.94000	 9.803869e-002	3.36770
 99.78235	15.95000	 9.660180e-002	3.36765
 99.83236	15.96000	 9.513026e-002	3.36760
 99.88236	15.97000	 9.376162e-002	3.36756
 99.93239	15.98000	 9.235780e-002	3.36751
 99.98238	15.99000	 9.097012e-002	3.36746
100.03239	16.00000	 8.961490e-002	3.36741
100.08242	16.01000	 8.824617e-002	3.36736
100.13243	16.02000	 8.687615e-002	3.36732
100.18248	16.03000	 8.549318e-002	3.36727
100.23249	16.04000	 8.413726e-002	3.36722
100.28250	16.05000	 8.287792e-002	3.36717
100.33251	16.06000	 8.150777e-002	3.36712
100.38247	16.07000	 8.067786e-002	3.36707
100.43244	16.08000	 7.945071e-002	3.36702
100.48242	16.09000	 7.826562e-002	3.36698
100.53241	16.10000	 7.698367e-002	3.36693
100.58245	16.11000	 7.550428e-002	3.36688
100.63243	16.12000	 7.457217e-002	3.36683
100.68243	16.13000	 7.353375e-002	3.36678
100.73239	16.14000	 7.226867e-002	3.36673
100.78234	16.15000	 7.136797e-002	3.36668
100.83228	16.16000	 7.010298e-002	3.36663
100.88224	16.17000	 6.900090e-002	3.36658
100.93218	16.18000	 6.815524e-002	3.36653
100.98211	16.19000	 6.704630e-002	3.36649
101.03203	16.20000	 6.586837e-002	3.36644
101.08203	16.21000	 6.471994e-002	3.36639
101.13198	16.22000	 6.366693e-002	3.36634
101.18196	16.23000	 6.256147e-002	3.36629
101.23197	16.24000	 6.149336e-002	3.36624
101.28194	16.25000	 6.036782e-002	3.36619
101.33192	16.26000	 5.972859e-002	3.36614
101.38188	16.27000	 5.858939e-002	3.36609
101.43185	16.28000	 5.749947e-002	3.36604
101.48184	16.29000	 5.644802e-002	3.36599
101.53180	16.30000	 5.548905e-002	3.36594
101.58177	16.31000	 5.478015e-002	3.36589
101.63171	16.32000	 5.377930e-002	3.36584
101.68168	16.33000	 5.280697e-002	3.36579
101.73167	16.34000	 5.179560e-002	3.36574
101.78171	16.35000	 5.089748e-002	3.36569
101.83169	16.36000	 4.986677e-002	3.36564
101.88166	16.37000	 4.905545e-002	3.36559
101.93167	16.38000	 4.823826e-002	3.36554
101.98162	16.39000	 4.735699e-002	3.36549
102.03166	16.40000	 4.645781e-002	3.36544
102.08167	16.41000	 4.561752e-002	3.36539
102.13166	16.42000	 4.484018e-002	3.36534
102.18164	16.43000	 4.396169e-002	3.36529
102.23161	16.44000	 4.308586e-002	3.36524
102.28158	16.45000	 4.214094e-002	3.36519
102.33157	16.46000	 4.122147e-002	3.36514
102.38157	16.47000	 4.064145e-002	3.36508
102.43157	16.48000	 3.982207e-002	3.36503
102.48160	16.49000	 3.919276e-002	3.36498
102.53161	16.50000	 3.839384e-002	3.36493
102.58160	16.51000	 3.773072e-002	3.36488
102.63159	16.52000	 3.696695e-002	3.36483
102.68161	16.53000	 3.632161e-002	3.36478
102.73166	16.54000	 3.567622e-002	3.36473
102.78170	16.55000	 3.489268e-002	3.36468
102.83174	16.56000	 3.411223e-002	3.36462
102.88179	16.57000	 3.327872e-002	3.36457
102.93177	16.58000	 3.257581e-002	3.36452
102.98180	16.59000	 3.192224e-002	3.36447
103.03180	16.60000	 3.133886e-002	3.36442
103.08181	16.61000	 3.047027e-002	3.36437
103.13179	16.62000	 2.998976e-002	3.36432
103.18177	16.63000	 2.939459e-002	3.36426
103.23172	16.64000	 2.874987e-002	3.36421
103.28168	16.65000	 2.802231e-002	3.36416
103.33167	16.66000	 2.726435e-002	3.36411
103.38164	16.67000	 2.655802e-002	3.36406
103.43164	16.68000	 2.594268e-002	3.36400
103.48160	16.69000	 2.535050e-002	3.36395
103.53157	16.70000	 2.473060e-002	3.36390
103.58159	16.71000	 2.406506e-002	3.36385
103.63162	16.72000	 2.346344e-002	3.36380
103.68164	16.73000	 2.284844e-002	3.36374
103.73166	16.74000	 2.219655e-002	3.36369
103.78166	16.75000	 2.171633e-002	3.36364
103.83162	16.76000	 2.120216e-002	3.36359
103.88165	16.77000	 2.060986e-002	3.36354
103.93167	16.78000	 2.001640e-002	3.36348
103.98166	16.79000	 1.951097e-002	3.36343
104.03167	16.80000	 1.909957e-002	3.36338
104.08166	16.81000	 1.848077e-002	3.36333
104.13162	16.82000	 1.789968e-002	3.36327
104.18163	16.83000	 1.725919e-002	3.36322
104.23166	16.84000	 1.694463e-002	3.36317
104.28169	16.85000	 1.636216e-002	3.36311
104.33172	16.86000	 1.585429e-002	3.36306
104.38175	16.87000	 1.536432e-002	3.36301
104.43177	16.88000	 1.487214e-002	3.36296
104.48179	16.89000	 1.443526e-002	3.36290
104.53179	16.90000	 1.380828e-002	3.36285
104.58179	16.91000	 1.316830e-002	3.36280
104.63182	16.92000	 1.274436e-002	3.36274
104.68181	16.93000	 1.236217e-002	3.36269
104.73180	16.94000	 1.162571e-002	3.36264
104.78181	16.95000	 1.106171e-002	3.36258
104.83175	16.96000	 1.058899e-002	3.36253
104.88171	16.97000	 1.008469e-002	3.36248
104.93167	16.98000	 9.607249e-003	3.36242
104.98167	16.99000	 9.265587e-003	3.36237
105.03162	17.00000	 8.736436e-003	3.36232
105.08161	17.01000	 8.178476e-003	3.36226
105.13159	17.02000	 7.653026e-003	3.36221
105.18156	17.03000	 7.194416e-003	3.36215
105.23157	17.04000	 6.951233e-003	3.36210
105.28160	17.05000	 6.571295e-003	3.36205
105.33161	17.06000	 5.976344e-003	3.36199
105.38159	17.07000	 5.231310e-003	3.36194
105.43161	17.08000	 4.783016e-003	3.36188
105.48163	17.09000	 4.371897e-003	3.36183
105.53161	17.10000	 3.999036e-003	3.36178
105.58164	17.11000	 3.569888e-003	3.36172
105.63167	17.12000	 3.270411e-003	3.36167
105.68170	17.13000	 2.900061e-003	3.36161
105.73171	17.14000	 2.486691e-003	3.36156
105.78172	17.15000	 2.369282e-003	3.36150
105.83177	17.16000	 1.756896e-003	3.36145
105.88180	17.17000	 1.442925e-003	3.36139
105.93184	17.18000	 8.636935e-004	3.36134
105.98182	17.19000	 4.032821e-004	3.36129
106.03180	17.20000	-8.900033e-006	3.36123
106.08182	17.21000	-3.689747e-004	3.36118
106.13184	17.22000	-7.302899e-004	3.36112
106.18184	17.23000	-1.181987e-003	3.36107
106.23179	17.24000	-1.534121e-003	3.36101
106.28178	17.25000	-1.943314e-003	3.36096
106.33174	17.26000	-2.283301e-003	3.36090
106.38177	17.27000	-2.742863e-003	3.36085
106.43180	17.28000	-3.196303e-003	3.36079
106.48181	17.29000	-3.500027e-003	3.36074
106.53182	17.30000	-3.863904e-003	3.36068
106.58184	17.31000	-4.283613e-003	3.36063
106.63184	17.32000	-4.612533e-003	3.36057
106.68182	17.33000	-5.002225e-003	3.36051
106.73184	17.34000	-5.362283e-003	3.36046
106.78182	17.35000	-5.736664e-003	3.36040
106.83185	17.36000	-6.138725e-003	3.36035
106.88192	17.37000	-6.577626e-003	3.36029
106.93197	17.38000	-6.915594e-003	3.36024
106.98200	17.39000	-7.315123e-003	3.36018
107.03205	17.40000	-7.443411e-003	3.36013
107.08211	17.41000	-7.824882e-003	3.36007
107.13218	17.42000	-8.263462e-003	3.36001
107.18225	17.43000	-8.631325e-003	3.35996
107.23230	17.44000	-9.111998e-003	3.35990
107.28236	17.45000	-9.260030e-003	3.35984
107.33239	17.46000	-9.548773e-003	3.35979
107.38248	17.47000	-9.846326e-003	3.35973
107.43254	17.48000	-1.034126e-002	3.35968
107.48254	17.49000	-1.056088e-002	3.35962
107.53261	17.50000	-1.091634e-002	3.35956
107.58265	17.51000	-1.131810e-002	3.35951
107.63270	17.52000	-1.165492e-002	3.35945
107.68276	17.53000	-1.194179e-002	3.35939
107.73285	17.54000	-1.206484e-002	3.35934
107.78290	17.55000	-1.243964e-002	3.35928
107.83297	17.56000	-1.288559e-002	3.35922
107.88306	17.57000	-1.311410e-002	3.35917
107.93311	17.58000	-1.351486e-002	3.35911
107.98317	17.59000	-1.364893e-002	3.35905
108.03323	17.60000	-1.400558e-002	3.35900
108.08327	17.61000	-1.440149e-002	3.35894
108.13330	17.62000	-1.449424e-002	3.35888
108.18330	17.63000	-1.494533e-002	3.35883
108.23331	17.64000	-1.509205e-002	3.35877
108.28336	17.65000	-1.544477e-002	3.35871
108.33338	17.66000	-1.585374e-002	3.35865
108.38338	17.67000	-1.624129e-002	3.35860
108.43338	17.68000	-1.634216e-002	3.35854
108.48333	17.69000	-1.667299e-002	3.35848
108.53333	17.70000	-1.710430e-002	3.35843
108.58332	17.71000	-1.723214e-002	3.35837
108.63329	17.72000	-1.762017e-002	3.35831
108.68329	17.73000	-1.772404e-002	3.35825
108.73329	17.74000	-1.799849e-002	3.35820
108.78328	17.75000	-1.819754e-002	3.35814
108.83323	17.76000	-1.843266e-002	3.35808
108.88321	17.77000	-1.878516e-002	3.35802
108.93315	17.78000	-1.913988e-002	3.35797
108.98310	17.79000	-1.936129e-002	3.35791
109.03308	17.80000	-1.967946e-002	3.35785
109.08300	17.81000	-1.990807e-002	3.35779
109.13297	17.82000	-2.001618e-002	3.35773
109.18291	17.83000	-2.000412e-002	3.35768
109.23287	17.84000	-2.021675e-002	3.35762
109.28282	17.85000	-2.040716e-002	3.35756
109.33279	17.86000	-2.066374e-002	3.35750
109.38273	17.87000	-2.089270e-002	3.35744
109.43269	17.88000	-2.102791e-002	3.35738
109.48261	17.89000	-2.121573e-002	3.35733
109.53257	17.90000	-2.152972e-002	3.35727
109.58252	17.91000	-2.180071e-002	3.35721
109.63246	17.92000	-2.194942e-002	3.35715
109.68235	17.93000	-2.208290e-002	3.35709
109.73228	17.94000	-2.234107e-002	3.35703
109.78220	17.95000	-2.280369e-002	3.35698
109.83211	17.96000	-2.317158e-002	3.35692
109.88200	17.97000	-2.322273e-002	3.35686
109.93193	17.98000	-2.328982e-002	3.35680
109.98182	17.99000	-2.384913e-002	3.35674
110.03175	18.00000	-2.414818e-002	3.35668
110.08171	18.01000	-2.429346e-002	3.35662
110.13166	18.02000	-2.454227e-002	3.35656
110.18160	18.03000	-2.478100e-002	3.35651
110.23157	18.04000	-2.485459e-002	3.35645
110.28153	18.05000	-2.512100e-002	3.35639
110.33148	18.06000	-2.544117e-002	3.35633
110.38144	18.07000	-2.574844e-002	3.35627
110.43139	18.08000	-2.605446e-002	3.35621
110.48132	18.09000	-2.639333e-002	3.35615
110.53126	18.10000	-2.647680e-002	3.35609
110.58123	18.11000	-2.660077e-002	3.35603
110.63116	18.12000	-2.700836e-002	3.35597
110.68116	18.13000	-2.720357e-002	3.35591
110.73116	18.14000	-2.726568e-002	3.35585
110.78118	18.15000	-2.773275e-002	3.35579
110.83121	18.16000	-2.787984e-002	3.35573
110.88127	18.17000	-2.793636e-002	3.35567
110.93133	18.18000	-2.821903e-002	3.35561
110.98139	18.19000	-2.839355e-002	3.35555
111.03148	18.20000	-2.867455e-002	3.35549
111.08155	18.21000	-2.889400e-002	3.35543
111.13164	18.22000	-2.911504e-002	3.35537
111.18169	18.23000	-2.938991e-002	3.35531
111.23177	18.24000	-2.966480e-002	3.35525
111.28184	18.25000	-2.987129e-002	3.35519
111.33193	18.26000	-3.007797e-002	3.35513
111.38204	18.27000	-3.033786e-002	3.35507
111.43210	18.28000	-3.043602e-002	3.35501
111.48219	18.29000	-3.055229e-002	3.35495
111.53228	18.30000	-3.082114e-002	3.35489
111.58236	18.31000	-3.126026e-002	3.35483
111.63243	18.32000	-3.150876e-002	3.35477
111.68246	18.33000	-3.159424e-002	3.35471
111.73254	18.34000	-3.161885e-002	3.35465
111.78255	18.35000	-3.186933e-002	3.35459
111.83261	18.36000	-3.211366e-002	3.35453
111.88262	18.37000	-3.221110e-002	3.35446
111.93261	18.38000	-3.269106e-002	3.35440
111.98258	18.39000	-3.290469e-002	3.35434
112.03259	18.40000	-3.291274e-002	3.35428
112.08259	18.41000	-3.293882e-002	3.35422
112.13262	18.42000	-3.319026e-002	3.35416
112.18265	18.43000	-3.342583e-002	3.35410
112.23266	18.44000	-3.363223e-002	3.35404
112.28264	18.45000	-3.385374e-002	3.35398
112.33267	18.46000	-3.407352e-002	3.35391
112.38268	18.47000	-3.431793e-002	3.35385
112.43266	18.48000	-3.459813e-002	3.35379
112.48266	18.49000	-3.460358e-002	3.35373
112.53269	18.50000	-3.451980e-002	3.35367
112.58266	18.51000	-3.454944e-002	3.35361
112.63264	18.52000	-3.474261e-002	3.35355
112.68265	18.53000	-3.476838e-002	3.35348
112.73262	18.54000	-3.482838e-002	3.35342
112.78257	18.55000	-3.495183e-002	3.35336
112.83257	18.56000	-3.513381e-002	3.35330
112.88252	18.57000	-3.536443e-002	3.35324
112.93244	18.58000	-3.546704e-002	3.35317
112.98235	18.59000	-3.554858e-002	3.35311
113.03228	18.60000	-3.568632e-002	3.35305
113.08224	18.61000	-3.590064e-002	3.35299
113.13215	18.62000	-3.611708e-002	3.35293
113.18213	18.63000	-3.623253e-002	3.35286
113.23211	18.64000	-3.638374e-002	3.35280
113.28213	18.65000	-3.653697e-002	3.35274
113.33208	18.66000	-3.684235e-002	3.35268
113.38200	18.67000	-3.715504e-002	3.35262
113.43193	18.68000	-3.708236e-002	3.35255
113.48185	18.69000	-3.709935e-002	3.35249
113.53177	18.70000	-3.721200e-002	3.35243
113.58172	18.71000	-3.749335e-002	3.35237
113.63164	18.72000	-3.764363e-002	3.35230
113.68157	18.73000	-3.776609e-002	3.35224
113.73149	18.74000	-3.793746e-002	3.35218
113.78140	18.75000	-3.829768e-002	3.35212
113.83133	18.76000	-3.855967e-002	3.35205
113.88124	18.77000	-3.877011e-002	3.35199
113.93120	18.78000	-3.901920e-002	3.35193
113.98116	18.79000	-3.916780e-002	3.35186
114.03116	18.80000	-3.941954e-002	3.35180
114.08116	18.81000	-3.949754e-002	3.35174
114.13113	18.82000	-3.967662e-002	3.35167
114.18112	18.83000	-3.989263e-002	3.35161
114.23111	18.84000	-4.001385e-002	3.35155
114.28115	18.85000	-4.005911e-002	3.35148
114.33120	18.86000	-4.010640e-002	3.35142
114.38125	18.87000	-4.017535e-002	3.35136
114.43131	18.88000	-4.047253e-002	3.35129
114.48137	18.89000	-4.058137e-002	3.35123
114.53143	18.90000	-4.072896e-002	3.35117
114.58151	18.91000	-4.091301e-002	3.35110
114.63156	18.92000	-4.090349e-002	3.35104
114.68164	18.93000	-4.094510e-002	3.35098
114.73172	18.94000	-4.124262e-002	3.35091
114.78179	18.95000	-4.138228e-002	3.35085
114.83182	18.96000	-4.147169e-002	3.35078
114.88182	18.97000	-4.142303e-002	3.35072
114.93185	18.98000	-4.175565e-002	3.35066
114.98190	18.99000	-4.202852e-002	3.35059
115.03200	19.00000	-4.201828e-002	3.35053
115.08204	19.01000	-4.219439e-002	3.35046
115.13210	19.02000	-4.246110e-002	3.35040
115.18215	19.03000	-4.258424e-002	3.35033
115.23218	19.04000	-4.271119e-002	3.35027
115.28216	19.05000	-4.286344e-002	3.35021
115.33213	19.06000	-4.298871e-002	3.35014
115.38212	19.07000	-4.306469e-002	3.35008
115.43211	19.08000	-4.321211e-002	3.35001
115.48213	19.09000	-4.324011e-002	3.34995
115.53215	19.10000	-4.343480e-002	3.34988
115.58215	19.11000	-4.364315e-002	3.34982
115.63215	19.12000	-4.382289e-002	3.34975
115.68216	19.13000	-4.391004e-002	3.34969
115.73218	19.14000	-4.399040e-002	3.34962
115.78220	19.15000	-4.419423e-002	3.34956
115.83220	19.16000	-4.426912e-002	3.34949
115.88222	19.17000	-4.436989e-002	3.34943
115.93228	19.18000	-4.440958e-002	3.34937
115.98228	19.19000	-4.448341e-002	3.34930
116.03231	19.20000	-4.452149e-002	3.34923
116.08229	19.21000	-4.460876e-002	3.34917
116.13230	19.22000	-4.482356e-002	3.34910
116.18231	19.23000	-4.495382e-002	3.34904
116.23233	19.24000	-4.498841e-002	3.34897
116.28231	19.25000	-4.508703e-002	3.34891
116.33226	19.26000	-4.520853e-002	3.34884
116.38225	19.27000	-4.538264e-002	3.34878
116.43221	19.28000	-4.542868e-002	3.34871
116.48224	19.29000	-4.537328e-002	3.34865
116.53225	19.30000	-4.548378e-002	3.34858
116.58223	19.31000	-4.562513e-002	3.34852
116.63221	19.32000	-4.567614e-002	3.34845
116.68220	19.33000	-4.568195e-002	3.34838
116.73220	19.34000	-4.581435e-002	3.34832
116.78218	19.35000	-4.590864e-002	3.34825
116.83215	19.36000	-4.600674e-002	3.34819
116.88214	19.37000	-4.601215e-002	3.34812
116.93215	19.38000	-4.611644e-002	3.34805
116.98211	19.39000	-4.627979e-002	3.34799
117.03208	19.40000	-4.647722e-002	3.34792
117.08203	19.41000	-4.666128e-002	3.34786
117.13198	19.42000	-4.684569e-002	3.34779
117.18195	19.43000	-4.697286e-002	3.34772
117.23190	19.44000	-4.710399e-002	3.34766
117.28185	19.45000	-4.724950e-002	3.34759
117.33182	19.46000	-4.752779e-002	3.34752
117.38180	19.47000	-4.768048e-002	3.34746
117.43180	19.48000	-4.767597e-002	3.34739
117.48181	19.49000	-4.772037e-002	3.34733
117.53180	19.50000	-4.782487e-002	3.34726
117.58178	19.51000	-4.794226e-002	3.34719
117.63180	19.52000	-4.808401e-002	3.34713
117.68182	19.53000	-4.837846e-002	3.34706
117.73182	19.54000	-4.850759e-002	3.34699
117.78189	19.55000	-4.862980e-002	3.34692
117.83193	19.56000	-4.846433e-002	3.34686
117.88200	19.57000	-4.857311e-002	3.34679
117.93203	19.58000	-4.880522e-002	3.34672
117.98206	19.59000	-4.892044e-002	3.34666
118.03211	19.60000	-4.891794e-002	3.34659
118.08218	19.61000	-4.913169e-002	3.34652
118.13225	19.62000	-4.917567e-002	3.34645
118.18229	19.63000	-4.925142e-002	3.34639
118.23231	19.64000	-4.929607e-002	3.34632
118.28235	19.65000	-4.939674e-002	3.34625
118.33236	19.66000	-4.936156e-002	3.34619
118.38238	19.67000	-4.960051e-002	3.34612
118.43236	19.68000	-4.967430e-002	3.34605
118.48234	19.69000	-4.963617e-002	3.34598
118.53230	19.70000	-4.984970e-002	3.34592
118.58227	19.71000	-5.004178e-002	3.34585
118.63225	19.72000	-4.996982e-002	3.34578
118.68226	19.73000	-5.013696e-002	3.34571
118.73223	19.74000	-5.017345e-002	3.34564
118.78222	19.75000	-5.021227e-002	3.34558
118.83221	19.76000	-5.034855e-002	3.34551
118.88223	19.77000	-5.052047e-002	3.34544
118.93223	19.78000	-5.049654e-002	3.34537
118.98223	19.79000	-5.052125e-002	3.34530
119.03223	19.80000	-5.067296e-002	3.34524
119.08225	19.81000	-5.068120e-002	3.34517
119.13225	19.82000	-5.082464e-002	3.34510
119.18223	19.83000	-5.092129e-002	3.34503
119.23221	19.84000	-5.092209e-002	3.34496
119.28221	19.85000	-5.103405e-002	3.34490
119.33220	19.86000	-5.123941e-002	3.34483
119.38222	19.87000	-5.126920e-002	3.34476
119.43221	19.88000	-5.117164e-002	3.34469
119.48222	19.89000	-5.129522e-002	3.34462
119.53221	19.90000	-5.135158e-002	3.34455
119.58224	19.91000	-5.144286e-002	3.34448
119.63223	19.92000	-5.153118e-002	3.34442
119.68220	19.93000	-5.169492e-002	3.34435
119.73218	19.94000	-5.179326e-002	3.34428
119.78219	19.95000	-5.187047e-002	3.34421
119.83215	19.96000	-5.197254e-002	3.34414
119.88215	19.97000	-5.209313e-002	3.34407
119.93213	19.98000	-5.201475e-002	3.34400
119.98213	19.99000	-5.215842e-002	3.34393
120.03211	20.00000	-5.233340e-002	3.34386
120.08207	20.01000	-5.235823e-002	3.34379
120.13202	20.02000	-5.235143e-002	3.34373
120.18195	20.03000	-5.254352e-002	3.34366
120.23192	20.04000	-5.270008e-002	3.34359
120.28190	20.05000	-5.284739e-002	3.34352
120.33189	20.06000	-5.280061e-002	3.34345
120.38184	20.07000	-5.285477e-002	3.34338
120.43184	20.08000	-5.306648e-002	3.34331
120.48182	20.09000	-5.322818e-002	3.34324
120.53187	20.10000	-5.335987e-002	3.34317
120.58191	20.11000	-5.349709e-002	3.34310
120.63193	20.12000	-5.357115e-002	3.34303
120.68195	20.13000	-5.369001e-002	3.34296
120.73200	20.14000	-5.380923e-002	3.34289
120.78204	20.15000	-5.389505e-002	3.34282
120.83208	20.16000	-5.404806e-002	3.34275
120.88214	20.17000	-5.410776e-002	3.34268
120.93216	20.18000	-5.420332e-002	3.34261
120.98219	20.19000	-5.429167e-002	3.34254
121.03221	20.20000	-5.441840e-002	3.34247
121.08225	20.21000	-5.457158e-002	3.34240
121.13228	20.22000	-5.469483e-002	3.34233
121.18234	20.23000	-5.475002e-002	3.34226
121.23239	20.24000	-5.480590e-002	3.34219
121.28242	20.25000	-5.480990e-002	3.34212
121.33244	20.26000	-5.510988e-002	3.34205
121.38241	20.27000	-5.518528e-002	3.34198
121.43238	20.28000	-5.530386e-002	3.34191
121.48236	20.29000	-5.535143e-002	3.34184
121.53234	20.30000	-5.549713e-002	3.34177
121.58238	20.31000	-5.561691e-002	3.34170
121.63239	20.32000	-5.577403e-002	3.34163
121.68240	20.33000	-5.576235e-002	3.34156
121.73239	20.34000	-5.588519e-002	3.34148
121.78237	20.35000	-5.606971e-002	3.34141
121.83233	20.36000	-5.616214e-002	3.34134
121.88229	20.37000	-5.620749e-002	3.34127
121.93228	20.38000	-5.641123e-002	3.34120
121.98225	20.39000	-5.654583e-002	3.34113
122.03221	20.40000	-5.671803e-002	3.34106
122.08220	20.41000	-5.681314e-002	3.34099
122.13216	20.42000	-5.678392e-002	3.34092
122.18215	20.43000	-5.686000e-002	3.34085
122.23216	20.44000	-5.726255e-002	3.34077
122.28217	20.45000	-5.725243e-002	3.34070
122.33215	20.46000	-5.721878e-002	3.34063
122.38217	20.47000	-5.726581e-002	3.34056
122.43221	20.48000	-5.736801e-002	3.34049
122.48223	20.49000	-5.763966e-002	3.34042
122.53223	20.50000	-5.768127e-002	3.34035
122.58225	20.51000	-5.775205e-002	3.34027
122.63223	20.52000	-5.788483e-002	3.34020
122.68224	20.53000	-5.805007e-002	3.34013
122.73223	20.54000	-5.828143e-002	3.34006
122.78222	20.55000	-5.841101e-002	3.33999
122.83220	20.56000	-5.848541e-002	3.33991
122.88218	20.57000	-5.859193e-002	3.33984
122.93213	20.58000	-5.879876e-002	3.33977
122.98214	20.59000	-5.890978e-002	3.33970
123.03215	20.60000	-5.907636e-002	3.33963
123.08212	20.61000	-5.932978e-002	3.33956
123.13210	20.62000	-5.939116e-002	3.33948
123.18206	20.63000	-5.937276e-002	3.33941
123.23202	20.64000	-5.953975e-002	3.33934
123.28199	20.65000	-5.973156e-002	3.33927
123.33200	20.66000	-5.982670e-002	3.33919
123.38196	20.67000	-5.992733e-002	3.33912
123.43200	20.68000	-6.022380e-002	3.33905
123.48205	20.69000	-6.045468e-002	3.33898
123.53205	20.70000	-6.056551e-002	3.33890
123.58203	20.71000	-6.056496e-002	3.33883
123.63197	20.72000	-6.066020e-002	3.33876
123.68194	20.73000	-6.085104e-002	3.33869
123.73195	20.74000	-6.097481e-002	3.33861
123.78197	20.75000	-6.109030e-002	3.33854
123.83195	20.76000	-6.120648e-002	3.33847
123.88198	20.77000	-6.133588e-002	3.33840
123.93198	20.78000	-6.146643e-002	3.33832
123.98198	20.79000	-6.152100e-002	3.33825
124.03202	20.80000	-6.150860e-002	3.33818
124.08206	20.81000	-6.178623e-002	3.33810
124.13208	20.82000	-6.199894e-002	3.33803
124.18211	20.83000	-6.202581e-002	3.33796
124.23216	20.84000	-6.202080e-002	3.33788
124.28215	20.85000	-6.217399e-002	3.33781
124.33215	20.86000	-6.231806e-002	3.33774
124.38221	20.87000	-6.247504e-002	3.33766
124.43221	20.88000	-6.253238e-002	3.33759
124.48223	20.89000	-6.270772e-002	3.33752
124.53225	20.90000	-6.288551e-002	3.33744
124.58220	20.91000	-6.299583e-002	3.33737
124.63218	20.92000	-6.307232e-002	3.33730
124.68221	20.93000	-6.322429e-002	3.33722
124.73223	20.94000	-6.336971e-002	3.33715
124.78226	20.95000	-6.357702e-002	3.33707
124.83226	20.96000	-6.375048e-002	3.33700
124.88224	20.97000	-6.393383e-002	3.33693
124.93220	20.98000	-6.399247e-002	3.33685
124.98220	20.99000	-6.408894e-002	3.33678
125.03215	21.00000	-6.434794e-002	3.33670
125.08212	21.01000	-6.449820e-002	3.33663
125.13211	21.02000	-6.454579e-002	3.33656
125.18210	21.03000	-6.482239e-002	3.33648
125.23210	21.04000	-6.499053e-002	3.33641
125.28213	21.05000	-6.530761e-002	3.33633
125.33211	21.06000	-6.551906e-002	3.33626
125.38212	21.07000	-6.573819e-002	3.33619
125.43211	21.08000	-6.579930e-002	3.33611
125.48208	21.09000	-6.586476e-002	3.33604
125.53207	21.10000	-6.599690e-002	3.33596
125.58209	21.11000	-6.628266e-002	3.33589
125.63208	21.12000	-6.646972e-002	3.33581
125.68210	21.13000	-6.671792e-002	3.33574
125.73211	21.14000	-6.683200e-002	3.33566
125.78211	21.15000	-6.707664e-002	3.33559
125.83213	21.16000	-6.741623e-002	3.33551
125.88221	21.17000	-6.747399e-002	3.33544
125.93223	21.18000	-6.750410e-002	3.33536
125.98228	21.19000	-6.757016e-002	3.33529
126.03233	21.20000	-6.774547e-002	3.33521
126.08236	21.21000	-6.805615e-002	3.33514
126.13236	21.22000	-6.823691e-002	3.33506
126.18237	21.23000	-6.831927e-002	3.33499
126.23239	21.24000	-6.837008e-002	3.33491
126.28239	21.25000	-6.862363e-002	3.33484
126.33241	21.26000	-6.866937e-002	3.33476
126.38241	21.27000	-6.888502e-002	3.33469
126.43239	21.28000	-6.902383e-002	3.33461
126.48243	21.29000	-6.927522e-002	3.33454
126.53241	21.30000	-6.957057e-002	3.33446
126.58245	21.31000	-6.949384e-002	3.33439
126.63244	21.32000	-6.970456e-002	3.33431
126.68243	21.33000	-7.018215e-002	3.33424
126.73244	21.34000	-7.033409e-002	3.33416
126.78238	21.35000	-7.056702e-002	3.33408
126.83236	21.36000	-7.079865e-002	3.33401
126.88234	21.37000	-7.081605e-002	3.33393
126.93234	21.38000	-7.093237e-002	3.33386
126.98234	21.39000	-7.111719e-002	3.33378
127.03231	21.40000	-7.137837e-002	3.33371
127.08233	21.41000	-7.172523e-002	3.33363
127.13234	21.42000	-7.214940e-002	3.33355
127.18236	21.43000	-7.212659e-002	3.33348
127.23239	21.44000	-7.234035e-002	3.33340
127.28235	21.45000	-7.262232e-002	3.33333
127.33233	21.46000	-7.280781e-002	3.33325
127.38235	21.47000	-7.305072e-002	3.33317
127.43238	21.48000	-7.335696e-002	3.33310
127.48239	21.49000	-7.360329e-002	3.33302
127.53239	21.50000	-7.385246e-002	3.33294
127.58240	21.51000	-7.391672e-002	3.33287
127.63239	21.52000	-7.415422e-002	3.33279
127.68242	21.53000	-7.446320e-002	3.33271
127.73244	21.54000	-7.462114e-002	3.33264
127.78248	21.55000	-7.478146e-002	3.33256
127.83249	21.56000	-7.514363e-002	3.33248
127.88247	21.57000	-7.551061e-002	3.33241
127.93244	21.58000	-7.544623e-002	3.33233
127.98247	21.59000	-7.571328e-002	3.33225
128.03243	21.60000	-7.591157e-002	3.33218
128.08237	21.61000	-7.612911e-002	3.33210
128.13231	21.62000	-7.634429e-002	3.33202
128.18229	21.63000	-7.662086e-002	3.33195
128.23228	21.64000	-7.686056e-002	3.33187
128.28224	21.65000	-7.713012e-002	3.33179
128.33221	21.66000	-7.743242e-002	3.33172
128.38219	21.67000	-7.768261e-002	3.33164
128.43216	21.68000	-7.781083e-002	3.33156
128.48210	21.69000	-7.796168e-002	3.33148
128.53208	21.70000	-7.827206e-002	3.33141
128.58205	21.71000	-7.859423e-002	3.33133
128.63205	21.72000	-7.898168e-002	3.33125
128.68205	21.73000	-7.926022e-002	3.33117
128.73202	21.74000	-7.958064e-002	3.33110
128.78200	21.75000	-7.969860e-002	3.33102
128.83202	21.76000	-7.995960e-002	3.33094
128.88201	21.77000	-8.012407e-002	3.33086
128.93200	21.78000	-8.058662e-002	3.33079
128.98203	21.79000	-8.076781e-002	3.33071
129.03205	21.80000	-8.105055e-002	3.33063
129.08204	21.81000	-8.146271e-002	3.33055
129.13200	21.82000	-8.171172e-002	3.33047
129.18201	21.83000	-8.207005e-002	3.33040
129.23198	21.84000	-8.226257e-002	3.33032
129.28197	21.85000	-8.250946e-002	3.33024
129.33198	21.86000	-8.275827e-002	3.33016
129.38193	21.87000	-8.292009e-002	3.33008
129.43183	21.88000	-8.330886e-002	3.33001
129.48182	21.89000	-8.362344e-002	3.32993
129.53179	21.90000	-8.394268e-002	3.32985
129.58185	21.91000	-8.425301e-002	3.32977
129.63196	21.92000	-8.463144e-002	3.32969
129.68206	21.93000	-8.487607e-002	3.32961
129.73212	21.94000	-8.515535e-002	3.32954
129.78221	21.95000	-8.543850e-002	3.32946
129.83218	21.96000	-8.578901e-002	3.32938
129.88220	21.97000	-8.612020e-002	3.32930
129.93220	21.98000	-8.645143e-002	3.32922
129.98251	21.99000	-8.678836e-002	3.32914

