#EXPORTTYPE:                 	DATA SINGLE                              
#FILE:                       	SK_Clear_resin_entalp75kpm_20-150.ngb-sdg
#FORMAT:                     	NETZSCH5                                 
#FTYPE:                      	ASCII                                    
#IDENTITY:                   	SK_clear_resin                           
#DECIMAL:                    	POINT                                    
#SEPARATOR:                  	TAB                                      
#MTYPE:                      	DSC                                      
#INSTRUMENT:                 	NETZSCH DSC 214                          
#PROJECT:                    	?ø?†??-Ø                               
#DATE/TIME:                  	13.09.2019 18:37:53 (UTC+3)              
#CORR. FILE:                 	                                         
#TEMPCAL:                    	applied                                  
#SENSITIVITY:                	applied                                  
#LABORATORY:                 	CISIS                                    
#OPERATOR:                   	Nasonov                                  
#REMARK:                     	                                         
#SAMPLE:                     	1070-G290S -0-Ù.1-3-17X3                 
#SAMPLE MASS /mg:            	9.19                                     
#MATERIAL:                   	                                         
#REFERENCE:                  	                                         
#REFERENCE MASS /mg:         	7.76                                     
#TYPE OF CRUCIBLE:           	Concavus Pan Al, pierced lid             
#SAMPLE CRUCIBLE MASS /mg:   	0                                        
#REFERENCE CRUCIBLE MASS /mg:	0                                        
#M.RANGE /ßV:                	5000                                     
#TAU-R:                      	---                                      
#CORR. CODE:                 	009                                      
#EXO:                        	+1                                       
#RANGE:                      	20ËC/7.5(K/min)/150ËC                    
#SEGMENT:                    	S1/1                                     
#SEG. 1:                     	20ËC/7.5(K/min)/150ËC                    

##Temp./ËC	Time/min	DSC/(mW/mg)	Sensit./(uV/mW)
 20.05400	 0.00000	 2.252373e-002	3.36737
 20.05140	 0.01000	 2.252251e-002	3.36737
 20.05122	 0.02000	 2.286732e-002	3.36737
 20.05692	 0.03000	 2.304044e-002	3.36737
 20.07247	 0.04000	 2.393073e-002	3.36739
 20.09886	 0.05000	 2.719071e-002	3.36742
 20.13616	 0.06000	 3.294484e-002	3.36746
 20.18386	 0.07000	 3.993500e-002	3.36751
 20.24139	 0.08000	 4.638733e-002	3.36757
 20.30800	 0.09000	 5.188073e-002	3.36763
 20.38249	 0.10000	 5.609496e-002	3.36771
 20.46384	 0.11000	 5.873549e-002	3.36780
 20.55100	 0.12000	 5.952858e-002	3.36789
 20.64289	 0.13000	 5.847721e-002	3.36798
 20.72618	 0.14000	 5.587360e-002	3.36807
 20.80140	 0.15000	 5.176815e-002	3.36814
 20.88084	 0.16000	 4.571805e-002	3.36822
 20.96449	 0.17000	 3.838859e-002	3.36831
 21.05215	 0.18000	 2.928867e-002	3.36840
 21.14347	 0.19000	 1.898412e-002	3.36849
 21.23807	 0.20000	 7.450274e-003	3.36859
 21.33549	 0.21000	-5.092924e-003	3.36868
 21.43527	 0.22000	-1.822617e-002	3.36878
 21.53711	 0.23000	-3.236674e-002	3.36889
 21.64056	 0.24000	-4.663039e-002	3.36899
 21.74515	 0.25000	-6.136020e-002	3.36909
 21.85067	 0.26000	-7.653377e-002	3.36920
 21.95669	 0.27000	-9.153352e-002	3.36930
 22.06287	 0.28000	      -0.10621	3.36941
 22.16889	 0.29000	      -0.12088	3.36951
 22.27435	 0.30000	      -0.13513	3.36962
 22.37907	 0.31000	      -0.14859	3.36972
 22.48278	 0.32000	      -0.16176	3.36982
 22.58533	 0.33000	      -0.17397	3.36992
 22.68645	 0.34000	      -0.18539	3.37002
 22.78604	 0.35000	      -0.19627	3.37011
 22.88393	 0.36000	      -0.20638	3.37021
 22.97998	 0.37000	      -0.21519	3.37030
 23.07415	 0.38000	      -0.22307	3.37039
 23.16636	 0.39000	      -0.22985	3.37048
 23.25664	 0.40000	      -0.23626	3.37057
 23.34500	 0.41000	      -0.24158	3.37065
 23.43138	 0.42000	      -0.24568	3.37073
 23.51578	 0.43000	      -0.24914	3.37081
 23.59825	 0.44000	      -0.25180	3.37089
 23.67880	 0.45000	      -0.25378	3.37097
 23.75758	 0.46000	      -0.25468	3.37104
 23.83462	 0.47000	      -0.25482	3.37111
 23.91013	 0.48000	      -0.25463	3.37118
 23.98411	 0.49000	      -0.25378	3.37125
 24.05662	 0.50000	      -0.25212	3.37132
 24.12787	 0.51000	      -0.25028	3.37139
 24.19787	 0.52000	      -0.24794	3.37145
 24.26682	 0.53000	      -0.24507	3.37152
 24.33476	 0.54000	      -0.24170	3.37158
 24.40184	 0.55000	      -0.23809	3.37164
 24.46822	 0.56000	      -0.23453	3.37170
 24.53400	 0.57000	      -0.23093	3.37176
 24.59933	 0.58000	      -0.22682	3.37182
 24.66433	 0.59000	      -0.22280	3.37188
 24.72895	 0.60000	      -0.21879	3.37194
 24.79344	 0.61000	      -0.21469	3.37200
 24.85776	 0.62000	      -0.21076	3.37206
 24.92211	 0.63000	      -0.20674	3.37212
 24.98655	 0.64000	      -0.20310	3.37218
 25.05109	 0.65000	      -0.19941	3.37223
 25.11585	 0.66000	      -0.19587	3.37229
 25.18085	 0.67000	      -0.19282	3.37235
 25.24611	 0.68000	      -0.18967	3.37241
 25.31175	 0.69000	      -0.18684	3.37247
 25.37775	 0.70000	      -0.18433	3.37253
 25.44420	 0.71000	      -0.18209	3.37259
 25.51109	 0.72000	      -0.17961	3.37265
 25.57844	 0.73000	      -0.17776	3.37271
 25.64624	 0.74000	      -0.17589	3.37277
 25.71449	 0.75000	      -0.17466	3.37283
 25.78325	 0.76000	      -0.17356	3.37289
 25.85249	 0.77000	      -0.17243	3.37295
 25.92222	 0.78000	      -0.17152	3.37301
 25.99249	 0.79000	      -0.17105	3.37307
 26.06324	 0.80000	      -0.17070	3.37314
 26.13433	 0.81000	      -0.17049	3.37320
 26.20591	 0.82000	      -0.17041	3.37326
 26.27789	 0.83000	      -0.17045	3.37332
 26.35024	 0.84000	      -0.17049	3.37339
 26.42300	 0.85000	      -0.17060	3.37345
 26.49604	 0.86000	      -0.17109	3.37351
 26.56945	 0.87000	      -0.17179	3.37358
 26.64316	 0.88000	      -0.17269	3.37364
 26.71713	 0.89000	      -0.17346	3.37370
 26.79136	 0.90000	      -0.17444	3.37377
 26.86569	 0.91000	      -0.17563	3.37383
 26.94027	 0.92000	      -0.17673	3.37390
 27.01504	 0.93000	      -0.17741	3.37396
 27.08991	 0.94000	      -0.17831	3.37402
 27.16496	 0.95000	      -0.17956	3.37409
 27.24018	 0.96000	      -0.18059	3.37415
 27.31544	 0.97000	      -0.18152	3.37421
 27.39073	 0.98000	      -0.18247	3.37428
 27.46607	 0.99000	      -0.18342	3.37434
 27.54142	 1.00000	      -0.18442	3.37440
 27.61676	 1.01000	      -0.18540	3.37447
 27.69213	 1.02000	      -0.18628	3.37453
 27.76747	 1.03000	      -0.18711	3.37459
 27.84273	 1.04000	      -0.18802	3.37465
 27.91795	 1.05000	      -0.18887	3.37472
 27.99318	 1.06000	      -0.18960	3.37478
 28.06836	 1.07000	      -0.19034	3.37484
 28.14358	 1.08000	      -0.19093	3.37490
 28.21876	 1.09000	      -0.19148	3.37496
 28.29396	 1.10000	      -0.19170	3.37503
 28.36905	 1.11000	      -0.19235	3.37509
 28.44398	 1.12000	      -0.19292	3.37515
 28.51893	 1.13000	      -0.19346	3.37521
 28.59380	 1.14000	      -0.19398	3.37527
 28.66862	 1.15000	      -0.19450	3.37533
 28.74336	 1.16000	      -0.19485	3.37539
 28.81802	 1.17000	      -0.19476	3.37545
 28.89267	 1.18000	      -0.19486	3.37551
 28.96729	 1.19000	      -0.19523	3.37557
 29.04191	 1.20000	      -0.19534	3.37563
 29.11642	 1.21000	      -0.19541	3.37569
 29.19093	 1.22000	      -0.19543	3.37575
 29.26538	 1.23000	      -0.19540	3.37581
 29.33978	 1.24000	      -0.19545	3.37587
 29.41416	 1.25000	      -0.19561	3.37592
 29.48858	 1.26000	      -0.19581	3.37598
 29.56298	 1.27000	      -0.19575	3.37604
 29.63735	 1.28000	      -0.19587	3.37610
 29.71175	 1.29000	      -0.19589	3.37616
 29.78613	 1.30000	      -0.19596	3.37621
 29.86060	 1.31000	      -0.19601	3.37627
 29.93515	 1.32000	      -0.19603	3.37633
 30.00964	 1.33000	      -0.19600	3.37639
 30.08411	 1.34000	      -0.19594	3.37644
 30.15862	 1.35000	      -0.19599	3.37650
 30.23315	 1.36000	      -0.19573	3.37656
 30.30756	 1.37000	      -0.19581	3.37662
 30.38207	 1.38000	      -0.19584	3.37667
 30.45660	 1.39000	      -0.19588	3.37673
 30.53115	 1.40000	      -0.19588	3.37679
 30.60564	 1.41000	      -0.19587	3.37684
 30.68018	 1.42000	      -0.19607	3.37690
 30.75471	 1.43000	      -0.19627	3.37695
 30.82936	 1.44000	      -0.19633	3.37701
 30.90405	 1.45000	      -0.19636	3.37706
 30.97876	 1.46000	      -0.19630	3.37712
 31.05345	 1.47000	      -0.19633	3.37718
 31.12820	 1.48000	      -0.19641	3.37723
 31.20300	 1.49000	      -0.19663	3.37729
 31.27776	 1.50000	      -0.19696	3.37734
 31.35258	 1.51000	      -0.19708	3.37740
 31.42736	 1.52000	      -0.19706	3.37745
 31.50216	 1.53000	      -0.19709	3.37751
 31.57698	 1.54000	      -0.19732	3.37756
 31.65191	 1.55000	      -0.19720	3.37762
 31.72678	 1.56000	      -0.19740	3.37767
 31.80165	 1.57000	      -0.19761	3.37772
 31.87656	 1.58000	      -0.19778	3.37778
 31.95140	 1.59000	      -0.19786	3.37783
 32.02627	 1.60000	      -0.19799	3.37788
 32.10120	 1.61000	      -0.19822	3.37794
 32.17613	 1.62000	      -0.19832	3.37799
 32.25095	 1.63000	      -0.19852	3.37805
 32.32585	 1.64000	      -0.19872	3.37810
 32.40082	 1.65000	      -0.19890	3.37815
 32.47576	 1.66000	      -0.19898	3.37820
 32.55067	 1.67000	      -0.19926	3.37826
 32.62562	 1.68000	      -0.19928	3.37831
 32.70062	 1.69000	      -0.19927	3.37836
 32.77562	 1.70000	      -0.19952	3.37841
 32.85069	 1.71000	      -0.19960	3.37847
 32.92565	 1.72000	      -0.19972	3.37852
 33.00056	 1.73000	      -0.19993	3.37857
 33.07555	 1.74000	      -0.19979	3.37862
 33.15049	 1.75000	      -0.19988	3.37867
 33.22545	 1.76000	      -0.20002	3.37872
 33.30038	 1.77000	      -0.20029	3.37877
 33.37533	 1.78000	      -0.20043	3.37883
 33.45033	 1.79000	      -0.20054	3.37888
 33.52535	 1.80000	      -0.20068	3.37893
 33.60031	 1.81000	      -0.20084	3.37898
 33.67524	 1.82000	      -0.20103	3.37903
 33.75027	 1.83000	      -0.20100	3.37908
 33.82536	 1.84000	      -0.20097	3.37913
 33.90038	 1.85000	      -0.20103	3.37918
 33.97547	 1.86000	      -0.20110	3.37923
 34.05051	 1.87000	      -0.20123	3.37928
 34.12553	 1.88000	      -0.20130	3.37933
 34.20056	 1.89000	      -0.20139	3.37938
 34.27556	 1.90000	      -0.20139	3.37943
 34.35056	 1.91000	      -0.20141	3.37947
 34.42553	 1.92000	      -0.20150	3.37952
 34.50053	 1.93000	      -0.20177	3.37957
 34.57555	 1.94000	      -0.20179	3.37962
 34.65053	 1.95000	      -0.20193	3.37967
 34.72551	 1.96000	      -0.20198	3.37972
 34.80049	 1.97000	      -0.20207	3.37977
 34.87545	 1.98000	      -0.20214	3.37981
 34.95040	 1.99000	      -0.20221	3.37986
 35.02545	 2.00000	      -0.20235	3.37991
 35.10051	 2.01000	      -0.20253	3.37996
 35.17562	 2.02000	      -0.20257	3.38001
 35.25069	 2.03000	      -0.20261	3.38005
 35.32576	 2.04000	      -0.20285	3.38010
 35.40085	 2.05000	      -0.20294	3.38015
 35.47596	 2.06000	      -0.20305	3.38019
 35.55104	 2.07000	      -0.20314	3.38024
 35.62613	 2.08000	      -0.20333	3.38029
 35.70122	 2.09000	      -0.20341	3.38033
 35.77629	 2.10000	      -0.20350	3.38038
 35.85133	 2.11000	      -0.20361	3.38042
 35.92635	 2.12000	      -0.20373	3.38047
 36.00135	 2.13000	      -0.20382	3.38052
 36.07636	 2.14000	      -0.20404	3.38056
 36.15142	 2.15000	      -0.20422	3.38061
 36.22645	 2.16000	      -0.20423	3.38065
 36.30151	 2.17000	      -0.20431	3.38070
 36.37656	 2.18000	      -0.20439	3.38074
 36.45162	 2.19000	      -0.20455	3.38079
 36.52660	 2.20000	      -0.20467	3.38083
 36.60158	 2.21000	      -0.20495	3.38088
 36.67660	 2.22000	      -0.20508	3.38092
 36.75155	 2.23000	      -0.20519	3.38097
 36.82655	 2.24000	      -0.20532	3.38101
 36.90147	 2.25000	      -0.20547	3.38105
 36.97644	 2.26000	      -0.20570	3.38110
 37.05140	 2.27000	      -0.20588	3.38114
 37.12631	 2.28000	      -0.20584	3.38118
 37.20124	 2.29000	      -0.20583	3.38123
 37.27622	 2.30000	      -0.20592	3.38127
 37.35122	 2.31000	      -0.20610	3.38131
 37.42616	 2.32000	      -0.20631	3.38136
 37.50118	 2.33000	      -0.20642	3.38140
 37.57620	 2.34000	      -0.20641	3.38144
 37.65122	 2.35000	      -0.20660	3.38148
 37.72624	 2.36000	      -0.20666	3.38153
 37.80116	 2.37000	      -0.20679	3.38157
 37.87615	 2.38000	      -0.20700	3.38161
 37.95115	 2.39000	      -0.20721	3.38165
 38.02616	 2.40000	      -0.20711	3.38169
 38.10118	 2.41000	      -0.20709	3.38174
 38.17620	 2.42000	      -0.20734	3.38178
 38.25120	 2.43000	      -0.20754	3.38182
 38.32624	 2.44000	      -0.20766	3.38186
 38.40127	 2.45000	      -0.20777	3.38190
 38.47635	 2.46000	      -0.20789	3.38194
 38.55140	 2.47000	      -0.20807	3.38198
 38.62651	 2.48000	      -0.20837	3.38202
 38.70160	 2.49000	      -0.20857	3.38206
 38.77665	 2.50000	      -0.20872	3.38210
 38.85180	 2.51000	      -0.20889	3.38214
 38.92696	 2.52000	      -0.20939	3.38218
 39.00211	 2.53000	      -0.20954	3.38222
 39.07722	 2.54000	      -0.20941	3.38226
 39.15231	 2.55000	      -0.20953	3.38230
 39.22742	 2.56000	      -0.20954	3.38234
 39.30244	 2.57000	      -0.20966	3.38238
 39.37745	 2.58000	      -0.20975	3.38242
 39.45245	 2.59000	      -0.20985	3.38246
 39.52747	 2.60000	      -0.20987	3.38250
 39.60242	 2.61000	      -0.20998	3.38253
 39.67736	 2.62000	      -0.21005	3.38257
 39.75235	 2.63000	      -0.21007	3.38261
 39.82735	 2.64000	      -0.21019	3.38265
 39.90236	 2.65000	      -0.21040	3.38269
 39.97736	 2.66000	      -0.21040	3.38273
 40.05235	 2.67000	      -0.21044	3.38276
 40.12735	 2.68000	      -0.21053	3.38280
 40.20231	 2.69000	      -0.21057	3.38284
 40.27731	 2.70000	      -0.21071	3.38287
 40.35235	 2.71000	      -0.21080	3.38291
 40.42736	 2.72000	      -0.21086	3.38295
 40.50235	 2.73000	      -0.21093	3.38299
 40.57738	 2.74000	      -0.21099	3.38302
 40.65236	 2.75000	      -0.21113	3.38306
 40.72733	 2.76000	      -0.21115	3.38309
 40.80235	 2.77000	      -0.21129	3.38313
 40.87731	 2.78000	      -0.21138	3.38317
 40.95231	 2.79000	      -0.21154	3.38320
 41.02731	 2.80000	      -0.21167	3.38324
 41.10235	 2.81000	      -0.21172	3.38327
 41.17736	 2.82000	      -0.21170	3.38331
 41.25242	 2.83000	      -0.21171	3.38334
 41.32747	 2.84000	      -0.21191	3.38338
 41.40253	 2.85000	      -0.21216	3.38341
 41.47756	 2.86000	      -0.21216	3.38345
 41.55262	 2.87000	      -0.21222	3.38348
 41.62765	 2.88000	      -0.21234	3.38352
 41.70275	 2.89000	      -0.21254	3.38355
 41.77782	 2.90000	      -0.21262	3.38359
 41.85291	 2.91000	      -0.21295	3.38362
 41.92802	 2.92000	      -0.21300	3.38365
 42.00307	 2.93000	      -0.21300	3.38369
 42.07809	 2.94000	      -0.21307	3.38372
 42.15315	 2.95000	      -0.21315	3.38376
 42.22820	 2.96000	      -0.21325	3.38379
 42.30325	 2.97000	      -0.21332	3.38382
 42.37829	 2.98000	      -0.21341	3.38386
 42.45331	 2.99000	      -0.21368	3.38389
 42.52829	 3.00000	      -0.21373	3.38392
 42.60327	 3.01000	      -0.21376	3.38395
 42.67827	 3.02000	      -0.21393	3.38399
 42.75329	 3.03000	      -0.21405	3.38402
 42.82836	 3.04000	      -0.21417	3.38405
 42.90344	 3.05000	      -0.21427	3.38408
 42.97851	 3.06000	      -0.21446	3.38411
 43.05353	 3.07000	      -0.21462	3.38415
 43.12849	 3.08000	      -0.21481	3.38418
 43.20349	 3.09000	      -0.21493	3.38421
 43.27847	 3.10000	      -0.21515	3.38424
 43.35347	 3.11000	      -0.21524	3.38427
 43.42849	 3.12000	      -0.21526	3.38430
 43.50351	 3.13000	      -0.21520	3.38433
 43.57853	 3.14000	      -0.21530	3.38436
 43.65360	 3.15000	      -0.21544	3.38439
 43.72860	 3.16000	      -0.21555	3.38442
 43.80351	 3.17000	      -0.21567	3.38445
 43.87840	 3.18000	      -0.21584	3.38448
 43.95329	 3.19000	      -0.21610	3.38451
 44.02818	 3.20000	      -0.21618	3.38454
 44.10307	 3.21000	      -0.21622	3.38457
 44.17791	 3.22000	      -0.21623	3.38460
 44.25284	 3.23000	      -0.21627	3.38463
 44.32775	 3.24000	      -0.21631	3.38466
 44.40262	 3.25000	      -0.21640	3.38469
 44.47753	 3.26000	      -0.21648	3.38472
 44.55249	 3.27000	      -0.21652	3.38475
 44.62749	 3.28000	      -0.21661	3.38478
 44.70244	 3.29000	      -0.21669	3.38480
 44.77744	 3.30000	      -0.21688	3.38483
 44.85242	 3.31000	      -0.21704	3.38486
 44.92733	 3.32000	      -0.21725	3.38489
 45.00227	 3.33000	      -0.21724	3.38492
 45.07725	 3.34000	      -0.21717	3.38494
 45.15227	 3.35000	      -0.21718	3.38497
 45.22729	 3.36000	      -0.21714	3.38500
 45.30231	 3.37000	      -0.21712	3.38503
 45.37735	 3.38000	      -0.21726	3.38505
 45.45236	 3.39000	      -0.21734	3.38508
 45.52744	 3.40000	      -0.21754	3.38511
 45.60249	 3.41000	      -0.21758	3.38513
 45.67760	 3.42000	      -0.21763	3.38516
 45.75267	 3.43000	      -0.21774	3.38519
 45.82784	 3.44000	      -0.21802	3.38521
 45.90302	 3.45000	      -0.21798	3.38524
 45.97822	 3.46000	      -0.21828	3.38526
 46.05340	 3.47000	      -0.21836	3.38529
 46.12858	 3.48000	      -0.21839	3.38532
 46.20382	 3.49000	      -0.21851	3.38534
 46.27902	 3.50000	      -0.21874	3.38537
 46.35418	 3.51000	      -0.21887	3.38539
 46.42940	 3.52000	      -0.21897	3.38542
 46.50456	 3.53000	      -0.21907	3.38544
 46.57976	 3.54000	      -0.21920	3.38547
 46.65491	 3.55000	      -0.21925	3.38549
 46.73004	 3.56000	      -0.21923	3.38552
 46.80520	 3.57000	      -0.21928	3.38554
 46.88029	 3.58000	      -0.21948	3.38556
 46.95536	 3.59000	      -0.21973	3.38559
 47.03053	 3.60000	      -0.21971	3.38561
 47.10560	 3.61000	      -0.21973	3.38564
 47.18069	 3.62000	      -0.21983	3.38566
 47.25578	 3.63000	      -0.22002	3.38568
 47.33089	 3.64000	      -0.22004	3.38571
 47.40593	 3.65000	      -0.22008	3.38573
 47.48095	 3.66000	      -0.22010	3.38575
 47.55591	 3.67000	      -0.22004	3.38577
 47.63085	 3.68000	      -0.22001	3.38580
 47.70582	 3.69000	      -0.22003	3.38582
 47.78078	 3.70000	      -0.22017	3.38584
 47.85571	 3.71000	      -0.22027	3.38586
 47.93062	 3.72000	      -0.22029	3.38589
 48.00556	 3.73000	      -0.22028	3.38591
 48.08051	 3.74000	      -0.22029	3.38593
 48.15549	 3.75000	      -0.22025	3.38595
 48.23047	 3.76000	      -0.22018	3.38597
 48.30538	 3.77000	      -0.22017	3.38599
 48.38042	 3.78000	      -0.22040	3.38602
 48.45538	 3.79000	      -0.22055	3.38604
 48.53036	 3.80000	      -0.22049	3.38606
 48.60536	 3.81000	      -0.22045	3.38608
 48.68029	 3.82000	      -0.22041	3.38610
 48.75527	 3.83000	      -0.22034	3.38612
 48.83018	 3.84000	      -0.22045	3.38614
 48.90511	 3.85000	      -0.22051	3.38616
 48.98009	 3.86000	      -0.22047	3.38618
 49.05509	 3.87000	      -0.22064	3.38620
 49.13005	 3.88000	      -0.22052	3.38622
 49.20498	 3.89000	      -0.22082	3.38624
 49.27995	 3.90000	      -0.22097	3.38626
 49.35493	 3.91000	      -0.22089	3.38628
 49.42995	 3.92000	      -0.22102	3.38630
 49.50496	 3.93000	      -0.22105	3.38632
 49.57998	 3.94000	      -0.22115	3.38633
 49.65505	 3.95000	      -0.22134	3.38635
 49.73011	 3.96000	      -0.22127	3.38637
 49.80511	 3.97000	      -0.22118	3.38639
 49.88011	 3.98000	      -0.22130	3.38641
 49.95513	 3.99000	      -0.22153	3.38643
 50.03009	 4.00000	      -0.22160	3.38644
 50.10500	 4.01000	      -0.22173	3.38646
 50.17995	 4.02000	      -0.22183	3.38648
 50.25485	 4.03000	      -0.22179	3.38650
 50.32980	 4.04000	      -0.22202	3.38651
 50.40469	 4.05000	      -0.22194	3.38653
 50.47962	 4.06000	      -0.22192	3.38655
 50.55458	 4.07000	      -0.22183	3.38657
 50.62951	 4.08000	      -0.22172	3.38658
 50.70453	 4.09000	      -0.22185	3.38660
 50.77947	 4.10000	      -0.22188	3.38661
 50.85456	 4.11000	      -0.22202	3.38663
 50.92958	 4.12000	      -0.22198	3.38665
 51.00464	 4.13000	      -0.22201	3.38666
 51.07965	 4.14000	      -0.22212	3.38668
 51.15460	 4.15000	      -0.22225	3.38670
 51.22960	 4.16000	      -0.22219	3.38671
 51.30465	 4.17000	      -0.22220	3.38673
 51.37965	 4.18000	      -0.22213	3.38674
 51.45467	 4.19000	      -0.22219	3.38676
 51.52965	 4.20000	      -0.22223	3.38677
 51.60465	 4.21000	      -0.22238	3.38679
 51.67971	 4.22000	      -0.22249	3.38680
 51.75473	 4.23000	      -0.22253	3.38682
 51.82971	 4.24000	      -0.22258	3.38683
 51.90476	 4.25000	      -0.22257	3.38685
 51.97982	 4.26000	      -0.22263	3.38686
 52.05489	 4.27000	      -0.22270	3.38687
 52.13007	 4.28000	      -0.22281	3.38689
 52.20522	 4.29000	      -0.22280	3.38690
 52.28033	 4.30000	      -0.22277	3.38691
 52.35549	 4.31000	      -0.22279	3.38693
 52.43065	 4.32000	      -0.22275	3.38694
 52.50576	 4.33000	      -0.22297	3.38695
 52.58087	 4.34000	      -0.22301	3.38697
 52.65591	 4.35000	      -0.22305	3.38698
 52.73095	 4.36000	      -0.22309	3.38699
 52.80600	 4.37000	      -0.22300	3.38701
 52.88107	 4.38000	      -0.22295	3.38702
 52.95616	 4.39000	      -0.22304	3.38703
 53.03127	 4.40000	      -0.22344	3.38704
 53.10629	 4.41000	      -0.22325	3.38705
 53.18138	 4.42000	      -0.22321	3.38707
 53.25647	 4.43000	      -0.22305	3.38708
 53.33151	 4.44000	      -0.22311	3.38709
 53.40653	 4.45000	      -0.22319	3.38710
 53.48156	 4.46000	      -0.22318	3.38711
 53.55660	 4.47000	      -0.22314	3.38712
 53.63164	 4.48000	      -0.22319	3.38713
 53.70665	 4.49000	      -0.22325	3.38714
 53.78162	 4.50000	      -0.22323	3.38716
 53.85664	 4.51000	      -0.22322	3.38717
 53.93164	 4.52000	      -0.22318	3.38718
 54.00656	 4.53000	      -0.22307	3.38719
 54.08156	 4.54000	      -0.22288	3.38720
 54.15653	 4.55000	      -0.22285	3.38721
 54.23153	 4.56000	      -0.22284	3.38722
 54.30658	 4.57000	      -0.22285	3.38723
 54.38160	 4.58000	      -0.22296	3.38724
 54.45651	 4.59000	      -0.22314	3.38725
 54.53149	 4.60000	      -0.22311	3.38725
 54.60655	 4.61000	      -0.22305	3.38726
 54.68151	 4.62000	      -0.22301	3.38727
 54.75655	 4.63000	      -0.22303	3.38728
 54.83156	 4.64000	      -0.22294	3.38729
 54.90651	 4.65000	      -0.22288	3.38730
 54.98145	 4.66000	      -0.22294	3.38731
 55.05640	 4.67000	      -0.22295	3.38731
 55.13136	 4.68000	      -0.22285	3.38732
 55.20633	 4.69000	      -0.22288	3.38733
 55.28124	 4.70000	      -0.22285	3.38734
 55.35624	 4.71000	      -0.22276	3.38735
 55.43118	 4.72000	      -0.22288	3.38735
 55.50611	 4.73000	      -0.22291	3.38736
 55.58102	 4.74000	      -0.22291	3.38737
 55.65604	 4.75000	      -0.22301	3.38738
 55.73098	 4.76000	      -0.22299	3.38738
 55.80596	 4.77000	      -0.22301	3.38739
 55.88102	 4.78000	      -0.22294	3.38740
 55.95607	 4.79000	      -0.22287	3.38740
 56.03111	 4.80000	      -0.22278	3.38741
 56.10611	 4.81000	      -0.22277	3.38741
 56.18109	 4.82000	      -0.22287	3.38742
 56.25602	 4.83000	      -0.22290	3.38743
 56.33091	 4.84000	      -0.22296	3.38743
 56.40585	 4.85000	      -0.22299	3.38744
 56.48087	 4.86000	      -0.22297	3.38744
 56.55585	 4.87000	      -0.22295	3.38745
 56.63084	 4.88000	      -0.22286	3.38745
 56.70587	 4.89000	      -0.22287	3.38746
 56.78089	 4.90000	      -0.22283	3.38746
 56.85585	 4.91000	      -0.22281	3.38747
 56.93087	 4.92000	      -0.22301	3.38747
 57.00589	 4.93000	      -0.22302	3.38748
 57.08095	 4.94000	      -0.22295	3.38748
 57.15602	 4.95000	      -0.22300	3.38749
 57.23105	 4.96000	      -0.22294	3.38749
 57.30615	 4.97000	      -0.22297	3.38749
 57.38116	 4.98000	      -0.22295	3.38750
 57.45618	 4.99000	      -0.22307	3.38750
 57.53125	 5.00000	      -0.22318	3.38750
 57.60635	 5.01000	      -0.22343	3.38751
 57.68144	 5.02000	      -0.22343	3.38751
 57.75658	 5.03000	      -0.22337	3.38751
 57.83175	 5.04000	      -0.22342	3.38752
 57.90680	 5.05000	      -0.22342	3.38752
 57.98180	 5.06000	      -0.22331	3.38752
 58.05684	 5.07000	      -0.22331	3.38753
 58.13189	 5.08000	      -0.22334	3.38753
 58.20696	 5.09000	      -0.22331	3.38753
 58.28204	 5.10000	      -0.22327	3.38753
 58.35718	 5.11000	      -0.22319	3.38753
 58.43231	 5.12000	      -0.22320	3.38754
 58.50738	 5.13000	      -0.22315	3.38754
 58.58249	 5.14000	      -0.22320	3.38754
 58.65753	 5.15000	      -0.22310	3.38754
 58.73255	 5.16000	      -0.22310	3.38754
 58.80756	 5.17000	      -0.22306	3.38754
 58.88260	 5.18000	      -0.22294	3.38754
 58.95755	 5.19000	      -0.22299	3.38754
 59.03247	 5.20000	      -0.22302	3.38754
 59.10744	 5.21000	      -0.22308	3.38754
 59.18235	 5.22000	      -0.22313	3.38755
 59.25725	 5.23000	      -0.22309	3.38755
 59.33224	 5.24000	      -0.22302	3.38755
 59.40724	 5.25000	      -0.22297	3.38755
 59.48222	 5.26000	      -0.22295	3.38755
 59.55725	 5.27000	      -0.22288	3.38754
 59.63224	 5.28000	      -0.22294	3.38754
 59.70724	 5.29000	      -0.22296	3.38754
 59.78216	 5.30000	      -0.22304	3.38754
 59.85702	 5.31000	      -0.22300	3.38754
 59.93195	 5.32000	      -0.22290	3.38754
 60.00687	 5.33000	      -0.22286	3.38754
 60.08184	 5.34000	      -0.22275	3.38754
 60.15676	 5.35000	      -0.22267	3.38754
 60.23169	 5.36000	      -0.22247	3.38754
 60.30662	 5.37000	      -0.22246	3.38753
 60.38151	 5.38000	      -0.22246	3.38753
 60.45645	 5.39000	      -0.22248	3.38753
 60.53136	 5.40000	      -0.22247	3.38753
 60.60629	 5.41000	      -0.22244	3.38752
 60.68120	 5.42000	      -0.22238	3.38752
 60.75616	 5.43000	      -0.22233	3.38752
 60.83113	 5.44000	      -0.22232	3.38752
 60.90615	 5.45000	      -0.22236	3.38751
 60.98122	 5.46000	      -0.22238	3.38751
 61.05633	 5.47000	      -0.22240	3.38751
 61.13140	 5.48000	      -0.22232	3.38750
 61.20649	 5.49000	      -0.22229	3.38750
 61.28160	 5.50000	      -0.22223	3.38750
 61.35675	 5.51000	      -0.22215	3.38749
 61.43180	 5.52000	      -0.22220	3.38749
 61.50685	 5.53000	      -0.22217	3.38748
 61.58193	 5.54000	      -0.22214	3.38748
 61.65695	 5.55000	      -0.22216	3.38748
 61.73198	 5.56000	      -0.22213	3.38747
 61.80704	 5.57000	      -0.22209	3.38747
 61.88207	 5.58000	      -0.22211	3.38746
 61.95715	 5.59000	      -0.22206	3.38746
 62.03215	 5.60000	      -0.22208	3.38745
 62.10720	 5.61000	      -0.22202	3.38745
 62.18220	 5.62000	      -0.22199	3.38744
 62.25725	 5.63000	      -0.22196	3.38744
 62.33224	 5.64000	      -0.22197	3.38743
 62.40724	 5.65000	      -0.22199	3.38742
 62.48227	 5.66000	      -0.22196	3.38742
 62.55729	 5.67000	      -0.22193	3.38741
 62.63227	 5.68000	      -0.22197	3.38741
 62.70727	 5.69000	      -0.22199	3.38740
 62.78235	 5.70000	      -0.22193	3.38739
 62.85735	 5.71000	      -0.22180	3.38739
 62.93236	 5.72000	      -0.22179	3.38738
 63.00736	 5.73000	      -0.22184	3.38737
 63.08229	 5.74000	      -0.22171	3.38737
 63.15731	 5.75000	      -0.22159	3.38736
 63.23224	 5.76000	      -0.22151	3.38735
 63.30720	 5.77000	      -0.22139	3.38734
 63.38215	 5.78000	      -0.22134	3.38734
 63.45705	 5.79000	      -0.22136	3.38733
 63.53193	 5.80000	      -0.22126	3.38732
 63.60682	 5.81000	      -0.22128	3.38731
 63.68176	 5.82000	      -0.22118	3.38730
 63.75675	 5.83000	      -0.22110	3.38730
 63.83171	 5.84000	      -0.22108	3.38729
 63.90665	 5.85000	      -0.22100	3.38728
 63.98158	 5.86000	      -0.22097	3.38727
 64.05653	 5.87000	      -0.22100	3.38726
 64.13147	 5.88000	      -0.22097	3.38725
 64.20645	 5.89000	      -0.22100	3.38724
 64.28144	 5.90000	      -0.22099	3.38723
 64.35636	 5.91000	      -0.22094	3.38722
 64.43144	 5.92000	      -0.22099	3.38722
 64.50642	 5.93000	      -0.22102	3.38721
 64.58142	 5.94000	      -0.22097	3.38720
 64.65644	 5.95000	      -0.22079	3.38719
 64.73145	 5.96000	      -0.22074	3.38718
 64.80645	 5.97000	      -0.22055	3.38717
 64.88144	 5.98000	      -0.22050	3.38715
 64.95642	 5.99000	      -0.22052	3.38714
 65.03142	 6.00000	      -0.22050	3.38713
 65.10642	 6.01000	      -0.22044	3.38712
 65.18138	 6.02000	      -0.22040	3.38711
 65.25635	 6.03000	      -0.22034	3.38710
 65.33135	 6.04000	      -0.22035	3.38709
 65.40629	 6.05000	      -0.22038	3.38708
 65.48129	 6.06000	      -0.22047	3.38707
 65.55625	 6.07000	      -0.22038	3.38705
 65.63129	 6.08000	      -0.22041	3.38704
 65.70627	 6.09000	      -0.22045	3.38703
 65.78122	 6.10000	      -0.22039	3.38702
 65.85618	 6.11000	      -0.22037	3.38701
 65.93115	 6.12000	      -0.22041	3.38699
 66.00615	 6.13000	      -0.22042	3.38698
 66.08116	 6.14000	      -0.22038	3.38697
 66.15625	 6.15000	      -0.22037	3.38696
 66.23133	 6.16000	      -0.22043	3.38694
 66.30633	 6.17000	      -0.22050	3.38693
 66.38135	 6.18000	      -0.22044	3.38692
 66.45636	 6.19000	      -0.22048	3.38690
 66.53136	 6.20000	      -0.22039	3.38689
 66.60635	 6.21000	      -0.22033	3.38688
 66.68135	 6.22000	      -0.22042	3.38686
 66.75636	 6.23000	      -0.22039	3.38685
 66.83133	 6.24000	      -0.22040	3.38683
 66.90636	 6.25000	      -0.22042	3.38682
 66.98140	 6.26000	      -0.22036	3.38681
 67.05644	 6.27000	      -0.22041	3.38679
 67.13144	 6.28000	      -0.22041	3.38678
 67.20642	 6.29000	      -0.22041	3.38676
 67.28147	 6.30000	      -0.22046	3.38675
 67.35647	 6.31000	      -0.22064	3.38673
 67.43151	 6.32000	      -0.22062	3.38672
 67.50656	 6.33000	      -0.22074	3.38670
 67.58165	 6.34000	      -0.22087	3.38669
 67.65675	 6.35000	      -0.22087	3.38667
 67.73189	 6.36000	      -0.22087	3.38665
 67.80704	 6.37000	      -0.22066	3.38664
 67.88216	 6.38000	      -0.22068	3.38662
 67.95729	 6.39000	      -0.22073	3.38661
 68.03236	 6.40000	      -0.22072	3.38659
 68.10747	 6.41000	      -0.22081	3.38657
 68.18256	 6.42000	      -0.22088	3.38656
 68.25762	 6.43000	      -0.22091	3.38654
 68.33269	 6.44000	      -0.22090	3.38652
 68.40778	 6.45000	      -0.22087	3.38651
 68.48293	 6.46000	      -0.22094	3.38649
 68.55800	 6.47000	      -0.22099	3.38647
 68.63311	 6.48000	      -0.22093	3.38645
 68.70820	 6.49000	      -0.22091	3.38644
 68.78333	 6.50000	      -0.22095	3.38642
 68.85845	 6.51000	      -0.22104	3.38640
 68.93351	 6.52000	      -0.22097	3.38638
 69.00855	 6.53000	      -0.22096	3.38637
 69.08362	 6.54000	      -0.22104	3.38635
 69.15864	 6.55000	      -0.22106	3.38633
 69.23365	 6.56000	      -0.22107	3.38631
 69.30867	 6.57000	      -0.22103	3.38629
 69.38369	 6.58000	      -0.22100	3.38627
 69.45871	 6.59000	      -0.22086	3.38625
 69.53369	 6.60000	      -0.22085	3.38623
 69.60867	 6.61000	      -0.22086	3.38622
 69.68369	 6.62000	      -0.22080	3.38620
 69.75862	 6.63000	      -0.22061	3.38618
 69.83355	 6.64000	      -0.22063	3.38616
 69.90849	 6.65000	      -0.22057	3.38614
 69.98338	 6.66000	      -0.22050	3.38612
 70.05829	 6.67000	      -0.22035	3.38610
 70.13318	 6.68000	      -0.22022	3.38608
 70.20807	 6.69000	      -0.22018	3.38606
 70.28295	 6.70000	      -0.21993	3.38604
 70.35780	 6.71000	      -0.21982	3.38602
 70.43276	 6.72000	      -0.21964	3.38600
 70.50767	 6.73000	      -0.21941	3.38597
 70.58262	 6.74000	      -0.21918	3.38595
 70.65756	 6.75000	      -0.21900	3.38593
 70.73251	 6.76000	      -0.21877	3.38591
 70.80745	 6.77000	      -0.21869	3.38589
 70.88233	 6.78000	      -0.21851	3.38587
 70.95720	 6.79000	      -0.21826	3.38585
 71.03220	 6.80000	      -0.21813	3.38582
 71.10720	 6.81000	      -0.21799	3.38580
 71.18216	 6.82000	      -0.21794	3.38578
 71.25716	 6.83000	      -0.21770	3.38576
 71.33220	 6.84000	      -0.21736	3.38574
 71.40720	 6.85000	      -0.21709	3.38571
 71.48222	 6.86000	      -0.21690	3.38569
 71.55722	 6.87000	      -0.21678	3.38567
 71.63222	 6.88000	      -0.21663	3.38564
 71.70729	 6.89000	      -0.21661	3.38562
 71.78235	 6.90000	      -0.21652	3.38560
 71.85735	 6.91000	      -0.21645	3.38558
 71.93236	 6.92000	      -0.21608	3.38555
 72.00740	 6.93000	      -0.21572	3.38553
 72.08247	 6.94000	      -0.21547	3.38550
 72.15756	 6.95000	      -0.21531	3.38548
 72.23265	 6.96000	      -0.21507	3.38546
 72.30773	 6.97000	      -0.21475	3.38543
 72.38285	 6.98000	      -0.21441	3.38541
 72.45793	 6.99000	      -0.21420	3.38538
 72.53296	 7.00000	      -0.21396	3.38536
 72.60800	 7.01000	      -0.21372	3.38533
 72.68304	 7.02000	      -0.21348	3.38531
 72.75804	 7.03000	      -0.21306	3.38528
 72.83307	 7.04000	      -0.21268	3.38526
 72.90813	 7.05000	      -0.21246	3.38523
 72.98318	 7.06000	      -0.21224	3.38521
 73.05818	 7.07000	      -0.21171	3.38518
 73.13322	 7.08000	      -0.21144	3.38516
 73.20820	 7.09000	      -0.21104	3.38513
 73.28325	 7.10000	      -0.21068	3.38511
 73.35825	 7.11000	      -0.21031	3.38508
 73.43329	 7.12000	      -0.20984	3.38505
 73.50829	 7.13000	      -0.20945	3.38503
 73.58327	 7.14000	      -0.20901	3.38500
 73.65833	 7.15000	      -0.20869	3.38497
 73.73331	 7.16000	      -0.20828	3.38495
 73.80820	 7.17000	      -0.20798	3.38492
 73.88311	 7.18000	      -0.20747	3.38489
 73.95802	 7.19000	      -0.20693	3.38487
 74.03293	 7.20000	      -0.20637	3.38484
 74.10787	 7.21000	      -0.20603	3.38481
 74.18285	 7.22000	      -0.20538	3.38478
 74.25784	 7.23000	      -0.20499	3.38476
 74.33284	 7.24000	      -0.20437	3.38473
 74.40780	 7.25000	      -0.20409	3.38470
 74.48269	 7.26000	      -0.20362	3.38467
 74.55760	 7.27000	      -0.20295	3.38464
 74.63253	 7.28000	      -0.20231	3.38462
 74.70744	 7.29000	      -0.20177	3.38459
 74.78233	 7.30000	      -0.20105	3.38456
 74.85724	 7.31000	      -0.20051	3.38453
 74.93215	 7.32000	      -0.20011	3.38450
 75.00713	 7.33000	      -0.19961	3.38447
 75.08209	 7.34000	      -0.19905	3.38444
 75.15707	 7.35000	      -0.19834	3.38441
 75.23202	 7.36000	      -0.19765	3.38438
 75.30698	 7.37000	      -0.19702	3.38435
 75.38196	 7.38000	      -0.19638	3.38432
 75.45698	 7.39000	      -0.19587	3.38429
 75.53202	 7.40000	      -0.19530	3.38426
 75.60705	 7.41000	      -0.19469	3.38423
 75.68207	 7.42000	      -0.19432	3.38420
 75.75713	 7.43000	      -0.19359	3.38417
 75.83224	 7.44000	      -0.19271	3.38414
 75.90740	 7.45000	      -0.19200	3.38411
 75.98251	 7.46000	      -0.19126	3.38408
 76.05764	 7.47000	      -0.19046	3.38405
 76.13271	 7.48000	      -0.18973	3.38402
 76.20780	 7.49000	      -0.18908	3.38399
 76.28287	 7.50000	      -0.18830	3.38396
 76.35796	 7.51000	      -0.18740	3.38392
 76.43302	 7.52000	      -0.18652	3.38389
 76.50813	 7.53000	      -0.18577	3.38386
 76.58322	 7.54000	      -0.18504	3.38383
 76.65831	 7.55000	      -0.18424	3.38380
 76.73340	 7.56000	      -0.18343	3.38376
 76.80851	 7.57000	      -0.18261	3.38373
 76.88364	 7.58000	      -0.18176	3.38370
 76.95873	 7.59000	      -0.18076	3.38367
 77.03378	 7.60000	      -0.17991	3.38363
 77.10884	 7.61000	      -0.17910	3.38360
 77.18389	 7.62000	      -0.17797	3.38357
 77.25887	 7.63000	      -0.17712	3.38354
 77.33393	 7.64000	      -0.17616	3.38350
 77.40895	 7.65000	      -0.17523	3.38347
 77.48396	 7.66000	      -0.17424	3.38344
 77.55896	 7.67000	      -0.17339	3.38340
 77.63398	 7.68000	      -0.17260	3.38337
 77.70898	 7.69000	      -0.17157	3.38333
 77.78398	 7.70000	      -0.17047	3.38330
 77.85885	 7.71000	      -0.16939	3.38327
 77.93376	 7.72000	      -0.16823	3.38323
 78.00871	 7.73000	      -0.16701	3.38320
 78.08371	 7.74000	      -0.16574	3.38316
 78.15865	 7.75000	      -0.16450	3.38313
 78.23358	 7.76000	      -0.16344	3.38309
 78.30853	 7.77000	      -0.16239	3.38306
 78.38340	 7.78000	      -0.16125	3.38302
 78.45845	 7.79000	      -0.16009	3.38299
 78.53347	 7.80000	      -0.15880	3.38295
 78.60853	 7.81000	      -0.15761	3.38292
 78.68362	 7.82000	      -0.15632	3.38288
 78.75873	 7.83000	      -0.15496	3.38284
 78.83378	 7.84000	      -0.15365	3.38281
 78.90880	 7.85000	      -0.15238	3.38277
 78.98382	 7.86000	      -0.15104	3.38274
 79.05884	 7.87000	      -0.14961	3.38270
 79.13395	 7.88000	      -0.14820	3.38266
 79.20904	 7.89000	      -0.14644	3.38263
 79.28413	 7.90000	      -0.14520	3.38259
 79.35925	 7.91000	      -0.14386	3.38255
 79.43436	 7.92000	      -0.14239	3.38252
 79.50942	 7.93000	      -0.14098	3.38248
 79.58444	 7.94000	      -0.13925	3.38244
 79.65942	 7.95000	      -0.13758	3.38240
 79.73447	 7.96000	      -0.13622	3.38237
 79.80942	 7.97000	      -0.13463	3.38233
 79.88444	 7.98000	      -0.13307	3.38229
 79.95956	 7.99000	      -0.13156	3.38225
 80.03458	 8.00000	      -0.12994	3.38221
 80.10964	 8.01000	      -0.12828	3.38218
 80.18464	 8.02000	      -0.12647	3.38214
 80.25965	 8.03000	      -0.12464	3.38210
 80.33465	 8.04000	      -0.12288	3.38206
 80.40973	 8.05000	      -0.12107	3.38202
 80.48467	 8.06000	      -0.11914	3.38198
 80.55960	 8.07000	      -0.11734	3.38194
 80.63445	 8.08000	      -0.11548	3.38190
 80.70933	 8.09000	      -0.11353	3.38187
 80.78420	 8.10000	      -0.11145	3.38183
 80.85913	 8.11000	      -0.10950	3.38179
 80.93402	 8.12000	      -0.10742	3.38175
 81.00896	 8.13000	      -0.10519	3.38171
 81.08389	 8.14000	      -0.10305	3.38167
 81.15876	 8.15000	      -0.10092	3.38163
 81.23362	 8.16000	-9.872488e-002	3.38159
 81.30844	 8.17000	-9.657627e-002	3.38155
 81.38333	 8.18000	-9.437820e-002	3.38151
 81.45820	 8.19000	-9.213162e-002	3.38147
 81.53313	 8.20000	-8.978647e-002	3.38143
 81.60805	 8.21000	-8.746646e-002	3.38138
 81.68304	 8.22000	-8.509602e-002	3.38134
 81.75800	 8.23000	-8.250519e-002	3.38130
 81.83302	 8.24000	-7.986521e-002	3.38126
 81.90805	 8.25000	-7.732370e-002	3.38122
 81.98307	 8.26000	-7.453627e-002	3.38118
 82.05807	 8.27000	-7.196232e-002	3.38114
 82.13305	 8.28000	-6.928864e-002	3.38109
 82.20809	 8.29000	-6.663881e-002	3.38105
 82.28316	 8.30000	-6.384257e-002	3.38101
 82.35820	 8.31000	-6.109439e-002	3.38097
 82.43320	 8.32000	-5.829704e-002	3.38093
 82.50820	 8.33000	-5.535230e-002	3.38088
 82.58333	 8.34000	-5.213769e-002	3.38084
 82.65840	 8.35000	-4.909521e-002	3.38080
 82.73345	 8.36000	-4.602746e-002	3.38075
 82.80849	 8.37000	-4.298451e-002	3.38071
 82.88356	 8.38000	-3.979414e-002	3.38067
 82.95862	 8.39000	-3.640724e-002	3.38063
 83.03371	 8.40000	-3.313908e-002	3.38058
 83.10878	 8.41000	-2.976773e-002	3.38054
 83.18384	 8.42000	-2.615072e-002	3.38049
 83.25889	 8.43000	-2.250906e-002	3.38045
 83.33400	 8.44000	-1.899010e-002	3.38041
 83.40907	 8.45000	-1.525033e-002	3.38036
 83.48405	 8.46000	-1.148528e-002	3.38032
 83.55907	 8.47000	-7.474207e-003	3.38027
 83.63411	 8.48000	-3.660794e-003	3.38023
 83.70920	 8.49000	 6.200165e-004	3.38018
 83.78425	 8.50000	 4.704449e-003	3.38014
 83.85929	 8.51000	 8.789311e-003	3.38010
 83.93425	 8.52000	 1.302132e-002	3.38005
 84.00927	 8.53000	 1.759527e-002	3.38001
 84.08429	 8.54000	 2.205951e-002	3.37996
 84.15929	 8.55000	 2.657236e-002	3.37991
 84.23431	 8.56000	 3.128215e-002	3.37987
 84.30929	 8.57000	 3.606641e-002	3.37982
 84.38425	 8.58000	 4.092320e-002	3.37978
 84.45927	 8.59000	 4.602607e-002	3.37973
 84.53424	 8.60000	 5.110485e-002	3.37969
 84.60920	 8.61000	 5.625779e-002	3.37964
 84.68420	 8.62000	 6.177933e-002	3.37959
 84.75925	 8.63000	 6.757092e-002	3.37955
 84.83431	 8.64000	 7.304332e-002	3.37950
 84.90935	 8.65000	 7.878513e-002	3.37945
 84.98436	 8.66000	 8.455329e-002	3.37941
 85.05931	 8.67000	 9.043059e-002	3.37936
 85.13429	 8.68000	 9.665458e-002	3.37931
 85.20931	 8.69000	       0.10305	3.37926
 85.28436	 8.70000	       0.10945	3.37922
 85.35938	 8.71000	       0.11592	3.37917
 85.43444	 8.72000	       0.12293	3.37912
 85.50945	 8.73000	       0.13018	3.37907
 85.58451	 8.74000	       0.13720	3.37903
 85.65953	 8.75000	       0.14450	3.37898
 85.73453	 8.76000	       0.15183	3.37893
 85.80947	 8.77000	       0.15946	3.37888
 85.88442	 8.78000	       0.16743	3.37883
 85.95945	 8.79000	       0.17538	3.37879
 86.03447	 8.80000	       0.18364	3.37874
 86.10944	 8.81000	       0.19176	3.37869
 86.18440	 8.82000	       0.20004	3.37864
 86.25944	 8.83000	       0.20909	3.37859
 86.33444	 8.84000	       0.21834	3.37854
 86.40949	 8.85000	       0.22759	3.37849
 86.48455	 8.86000	       0.23693	3.37844
 86.55953	 8.87000	       0.24642	3.37839
 86.63451	 8.88000	       0.25619	3.37834
 86.70951	 8.89000	       0.26642	3.37829
 86.78444	 8.90000	       0.27697	3.37824
 86.85938	 8.91000	       0.28745	3.37819
 86.93431	 8.92000	       0.29812	3.37814
 87.00925	 8.93000	       0.30941	3.37809
 87.08425	 8.94000	       0.32103	3.37804
 87.15931	 8.95000	       0.33256	3.37799
 87.23435	 8.96000	       0.34470	3.37794
 87.30935	 8.97000	       0.35684	3.37789
 87.38436	 8.98000	       0.36922	3.37784
 87.45940	 8.99000	       0.38181	3.37779
 87.53444	 9.00000	       0.39478	3.37774
 87.60951	 9.01000	       0.40847	3.37768
 87.68449	 9.02000	       0.42209	3.37763
 87.75953	 9.03000	       0.43610	3.37758
 87.83460	 9.04000	       0.45063	3.37753
 87.90965	 9.05000	       0.46530	3.37748
 87.98475	 9.06000	       0.48023	3.37743
 88.05982	 9.07000	       0.49545	3.37737
 88.13487	 9.08000	       0.51118	3.37732
 88.20998	 9.09000	       0.52724	3.37727
 88.28509	 9.10000	       0.54366	3.37722
 88.36018	 9.11000	       0.55997	3.37716
 88.43529	 9.12000	       0.57690	3.37711
 88.51036	 9.13000	       0.59427	3.37706
 88.58549	 9.14000	       0.61187	3.37700
 88.66064	 9.15000	       0.62980	3.37695
 88.73573	 9.16000	       0.64809	3.37690
 88.81082	 9.17000	       0.66669	3.37684
 88.88593	 9.18000	       0.68567	3.37679
 88.96107	 9.19000	       0.70533	3.37674
 89.03611	 9.20000	       0.72602	3.37668
 89.11122	 9.21000	       0.74611	3.37663
 89.18622	 9.22000	       0.76662	3.37657
 89.26120	 9.23000	       0.78737	3.37652
 89.33618	 9.24000	       0.80842	3.37647
 89.41116	 9.25000	       0.82992	3.37641
 89.48622	 9.26000	       0.85161	3.37636
 89.56118	 9.27000	       0.87382	3.37630
 89.63618	 9.28000	       0.89697	3.37625
 89.71116	 9.29000	       0.91972	3.37619
 89.78615	 9.30000	       0.94306	3.37614
 89.86116	 9.31000	       0.96631	3.37608
 89.93616	 9.32000	       0.99012	3.37603
 90.01113	 9.33000	       1.01398	3.37597
 90.08611	 9.34000	       1.03804	3.37592
 90.16111	 9.35000	       1.06246	3.37586
 90.23607	 9.36000	       1.08701	3.37580
 90.31106	 9.37000	       1.11186	3.37575
 90.38600	 9.38000	       1.13678	3.37569
 90.46102	 9.39000	       1.16202	3.37564
 90.53593	 9.40000	       1.18731	3.37558
 90.61087	 9.41000	       1.21248	3.37552
 90.68584	 9.42000	       1.23797	3.37547
 90.76085	 9.43000	       1.26351	3.37541
 90.83587	 9.44000	       1.28902	3.37535
 90.91087	 9.45000	       1.31447	3.37529
 90.98585	 9.46000	       1.33969	3.37524
 91.06085	 9.47000	       1.36495	3.37518
 91.13595	 9.48000	       1.39002	3.37512
 91.21104	 9.49000	       1.41506	3.37507
 91.28615	 9.50000	       1.43966	3.37501
 91.36125	 9.51000	       1.46428	3.37495
 91.43640	 9.52000	       1.48869	3.37489
 91.51142	 9.53000	       1.51268	3.37483
 91.58645	 9.54000	       1.53630	3.37477
 91.66155	 9.55000	       1.55970	3.37472
 91.73662	 9.56000	       1.58253	3.37466
 91.81169	 9.57000	       1.60490	3.37460
 91.88667	 9.58000	       1.62671	3.37454
 91.96165	 9.59000	       1.64785	3.37448
 92.03662	 9.60000	       1.66877	3.37442
 92.11158	 9.61000	       1.68881	3.37436
 92.18655	 9.62000	       1.70826	3.37430
 92.26155	 9.63000	       1.72705	3.37425
 92.33649	 9.64000	       1.74495	3.37419
 92.41144	 9.65000	       1.76221	3.37413
 92.48638	 9.66000	       1.77857	3.37407
 92.56133	 9.67000	       1.79408	3.37401
 92.63631	 9.68000	       1.80908	3.37395
 92.71122	 9.69000	       1.82271	3.37389
 92.78611	 9.70000	       1.83547	3.37383
 92.86096	 9.71000	       1.84755	3.37377
 92.93591	 9.72000	       1.85849	3.37371
 93.01080	 9.73000	       1.86825	3.37365
 93.08567	 9.74000	       1.87724	3.37358
 93.16051	 9.75000	       1.88487	3.37352
 93.23531	 9.76000	       1.89152	3.37346
 93.31015	 9.77000	       1.89726	3.37340
 93.38495	 9.78000	       1.90187	3.37334
 93.45969	 9.79000	       1.90512	3.37328
 93.53442	 9.80000	       1.90766	3.37322
 93.60918	 9.81000	       1.90892	3.37316
 93.68393	 9.82000	       1.90912	3.37310
 93.75869	 9.83000	       1.90841	3.37303
 93.83345	 9.84000	       1.90620	3.37297
 93.90827	 9.85000	       1.90321	3.37291
 93.98313	 9.86000	       1.89893	3.37285
 94.05800	 9.87000	       1.89377	3.37279
 94.13285	 9.88000	       1.88762	3.37272
 94.20769	 9.89000	       1.88022	3.37266
 94.28253	 9.90000	       1.87185	3.37260
 94.35733	 9.91000	       1.86251	3.37253
 94.43213	 9.92000	       1.85242	3.37247
 94.50695	 9.93000	       1.84113	3.37241
 94.58176	 9.94000	       1.82912	3.37235
 94.65656	 9.95000	       1.81623	3.37228
 94.73142	 9.96000	       1.80247	3.37222
 94.80633	 9.97000	       1.78778	3.37216
 94.88127	 9.98000	       1.77235	3.37209
 94.95613	 9.99000	       1.75657	3.37203
 95.03100	10.00000	       1.73959	3.37196
 95.10589	10.01000	       1.72191	3.37190
 95.18080	10.02000	       1.70371	3.37184
 95.25569	10.03000	       1.68495	3.37177
 95.33060	10.04000	       1.66569	3.37171
 95.40555	10.05000	       1.64572	3.37164
 95.48058	10.06000	       1.62528	3.37158
 95.55565	10.07000	       1.60481	3.37151
 95.63069	10.08000	       1.58375	3.37145
 95.70569	10.09000	       1.56220	3.37138
 95.78073	10.10000	       1.54043	3.37132
 95.85567	10.11000	       1.51831	3.37125
 95.93065	10.12000	       1.49590	3.37119
 96.00565	10.13000	       1.47338	3.37112
 96.08064	10.14000	       1.45071	3.37106
 96.15565	10.15000	       1.42781	3.37099
 96.23075	10.16000	       1.40484	3.37092
 96.30582	10.17000	       1.38197	3.37086
 96.38085	10.18000	       1.35889	3.37079
 96.45593	10.19000	       1.33587	3.37072
 96.53096	10.20000	       1.31280	3.37066
 96.60602	10.21000	       1.28970	3.37059
 96.68111	10.22000	       1.26684	3.37052
 96.75615	10.23000	       1.24399	3.37046
 96.83120	10.24000	       1.22143	3.37039
 96.90618	10.25000	       1.19886	3.37032
 96.98124	10.26000	       1.17677	3.37026
 97.05633	10.27000	       1.15462	3.37019
 97.13133	10.28000	       1.13270	3.37012
 97.20633	10.29000	       1.11090	3.37005
 97.28133	10.30000	       1.08951	3.36998
 97.35638	10.31000	       1.06852	3.36992
 97.43136	10.32000	       1.04738	3.36985
 97.50629	10.33000	       1.02658	3.36978
 97.58124	10.34000	       1.00603	3.36971
 97.65615	10.35000	       0.98598	3.36964
 97.73113	10.36000	       0.96621	3.36958
 97.80618	10.37000	       0.94677	3.36951
 97.88124	10.38000	       0.92750	3.36944
 97.95631	10.39000	       0.90844	3.36937
 98.03138	10.40000	       0.88966	3.36930
 98.10644	10.41000	       0.87134	3.36923
 98.18147	10.42000	       0.85337	3.36916
 98.25649	10.43000	       0.83564	3.36909
 98.33151	10.44000	       0.81837	3.36902
 98.40655	10.45000	       0.80124	3.36895
 98.48162	10.46000	       0.78454	3.36888
 98.55669	10.47000	       0.76829	3.36881
 98.63180	10.48000	       0.75198	3.36874
 98.70678	10.49000	       0.73607	3.36867
 98.78187	10.50000	       0.72068	3.36860
 98.85695	10.51000	       0.70539	3.36853
 98.93204	10.52000	       0.69056	3.36846
 99.00707	10.53000	       0.67603	3.36839
 99.08215	10.54000	       0.66165	3.36832
 99.15720	10.55000	       0.64776	3.36825
 99.23227	10.56000	       0.63395	3.36818
 99.30742	10.57000	       0.62033	3.36811
 99.38255	10.58000	       0.60735	3.36803
 99.45765	10.59000	       0.59445	3.36796
 99.53276	10.60000	       0.58219	3.36789
 99.60787	10.61000	       0.56990	3.36782
 99.68302	10.62000	       0.55786	3.36775
 99.75816	10.63000	       0.54606	3.36768
 99.83329	10.64000	       0.53461	3.36760
 99.90836	10.65000	       0.52323	3.36753
 99.98347	10.66000	       0.51220	3.36746
100.05851	10.67000	       0.50151	3.36739
100.13360	10.68000	       0.49093	3.36731
100.20871	10.69000	       0.48071	3.36724
100.28373	10.70000	       0.47072	3.36717
100.35882	10.71000	       0.46112	3.36710
100.43393	10.72000	       0.45161	3.36702
100.50902	10.73000	       0.44221	3.36695
100.58409	10.74000	       0.43307	3.36688
100.65913	10.75000	       0.42411	3.36680
100.73416	10.76000	       0.41520	3.36673
100.80924	10.77000	       0.40648	3.36666
100.88422	10.78000	       0.39826	3.36658
100.95922	10.79000	       0.39031	3.36651
101.03422	10.80000	       0.38230	3.36643
101.10931	10.81000	       0.37444	3.36636
101.18436	10.82000	       0.36681	3.36629
101.25945	10.83000	       0.35935	3.36621
101.33447	10.84000	       0.35229	3.36614
101.40949	10.85000	       0.34503	3.36606
101.48451	10.86000	       0.33806	3.36599
101.55953	10.87000	       0.33117	3.36591
101.63453	10.88000	       0.32445	3.36584
101.70947	10.89000	       0.31807	3.36576
101.78447	10.90000	       0.31153	3.36569
101.85945	10.91000	       0.30517	3.36561
101.93444	10.92000	       0.29897	3.36554
102.00947	10.93000	       0.29329	3.36546
102.08444	10.94000	       0.28760	3.36539
102.15942	10.95000	       0.28182	3.36531
102.23433	10.96000	       0.27621	3.36523
102.30929	10.97000	       0.27067	3.36516
102.38422	10.98000	       0.26533	3.36508
102.45911	10.99000	       0.26019	3.36501
102.53400	11.00000	       0.25509	3.36493
102.60891	11.01000	       0.25037	3.36485
102.68382	11.02000	       0.24542	3.36478
102.75875	11.03000	       0.24055	3.36470
102.83371	11.04000	       0.23580	3.36462
102.90869	11.05000	       0.23125	3.36455
102.98369	11.06000	       0.22662	3.36447
103.05867	11.07000	       0.22212	3.36439
103.13358	11.08000	       0.21771	3.36431
103.20847	11.09000	       0.21348	3.36424
103.28342	11.10000	       0.20949	3.36416
103.35835	11.11000	       0.20547	3.36408
103.43329	11.12000	       0.20139	3.36400
103.50816	11.13000	       0.19760	3.36393
103.58304	11.14000	       0.19376	3.36385
103.65795	11.15000	       0.19006	3.36377
103.73289	11.16000	       0.18637	3.36369
103.80787	11.17000	       0.18258	3.36361
103.88289	11.18000	       0.17911	3.36353
103.95787	11.19000	       0.17581	3.36346
104.03284	11.20000	       0.17233	3.36338
104.10778	11.21000	       0.16900	3.36330
104.18273	11.22000	       0.16559	3.36322
104.25769	11.23000	       0.16224	3.36314
104.33265	11.24000	       0.15893	3.36306
104.40769	11.25000	       0.15606	3.36298
104.48271	11.26000	       0.15310	3.36290
104.55776	11.27000	       0.15013	3.36282
104.63278	11.28000	       0.14712	3.36274
104.70787	11.29000	       0.14411	3.36266
104.78300	11.30000	       0.14117	3.36258
104.85809	11.31000	       0.13852	3.36250
104.93316	11.32000	       0.13586	3.36242
105.00818	11.33000	       0.13321	3.36234
105.08324	11.34000	       0.13062	3.36226
105.15835	11.35000	       0.12786	3.36218
105.23344	11.36000	       0.12522	3.36210
105.30851	11.37000	       0.12271	3.36202
105.38355	11.38000	       0.12026	3.36194
105.45862	11.39000	       0.11792	3.36185
105.53376	11.40000	       0.11550	3.36177
105.60887	11.41000	       0.11328	3.36169
105.68404	11.42000	       0.11114	3.36161
105.75916	11.43000	       0.10877	3.36153
105.83425	11.44000	       0.10655	3.36145
105.90931	11.45000	       0.10431	3.36136
105.98436	11.46000	       0.10209	3.36128
106.05940	11.47000	 9.987953e-002	3.36120
106.13451	11.48000	 9.774470e-002	3.36112
106.20962	11.49000	 9.575764e-002	3.36104
106.28475	11.50000	 9.374546e-002	3.36095
106.35989	11.51000	 9.183231e-002	3.36087
106.43498	11.52000	 8.989469e-002	3.36079
106.51000	11.53000	 8.790760e-002	3.36070
106.58502	11.54000	 8.611738e-002	3.36062
106.66007	11.55000	 8.440151e-002	3.36054
106.73511	11.56000	 8.256204e-002	3.36046
106.81009	11.57000	 8.082099e-002	3.36037
106.88504	11.58000	 7.922874e-002	3.36029
106.95998	11.59000	 7.758699e-002	3.36021
107.03500	11.60000	 7.579984e-002	3.36012
107.11007	11.61000	 7.414052e-002	3.36004
107.18516	11.62000	 7.248177e-002	3.35995
107.26016	11.63000	 7.097055e-002	3.35987
107.33520	11.64000	 6.931067e-002	3.35979
107.41024	11.65000	 6.770013e-002	3.35970
107.48525	11.66000	 6.608952e-002	3.35962
107.56024	11.67000	 6.455329e-002	3.35953
107.63527	11.68000	 6.319028e-002	3.35945
107.71033	11.69000	 6.177746e-002	3.35936
107.78535	11.70000	 6.031482e-002	3.35928
107.86040	11.71000	 5.895097e-002	3.35919
107.93540	11.72000	 5.753827e-002	3.35911
108.01040	11.73000	 5.607646e-002	3.35902
108.08540	11.74000	 5.461736e-002	3.35894
108.16040	11.75000	 5.328112e-002	3.35885
108.23529	11.76000	 5.199393e-002	3.35877
108.31025	11.77000	 5.063284e-002	3.35868
108.38522	11.78000	 4.937056e-002	3.35860
108.46022	11.79000	 4.820676e-002	3.35851
108.53516	11.80000	 4.694436e-002	3.35842
108.61013	11.81000	 4.573165e-002	3.35834
108.68498	11.82000	 4.456768e-002	3.35825
108.75976	11.83000	 4.330574e-002	3.35817
108.83462	11.84000	 4.199365e-002	3.35808
108.90951	11.85000	 4.102663e-002	3.35799
108.98442	11.86000	 3.971505e-002	3.35791
109.05936	11.87000	 3.850923e-002	3.35782
109.13418	11.88000	 3.730573e-002	3.35773
109.20900	11.89000	 3.634910e-002	3.35765
109.28380	11.90000	 3.534362e-002	3.35756
109.35865	11.91000	 3.433744e-002	3.35747
109.43355	11.92000	 3.330713e-002	3.35738
109.50842	11.93000	 3.230085e-002	3.35730
109.58333	11.94000	 3.122034e-002	3.35721
109.65822	11.95000	 3.016450e-002	3.35712
109.73315	11.96000	 2.908355e-002	3.35703
109.80805	11.97000	 2.800352e-002	3.35695
109.88300	11.98000	 2.692279e-002	3.35686
109.95793	11.99000	 2.604051e-002	3.35677
110.03280	12.00000	 2.520695e-002	3.35668
110.10778	12.01000	 2.432268e-002	3.35659
110.18276	12.02000	 2.343837e-002	3.35650
110.25776	12.03000	 2.252960e-002	3.35642
110.33278	12.04000	 2.152087e-002	3.35633
110.40780	12.05000	 2.036498e-002	3.35624
110.48276	12.06000	 1.943067e-002	3.35615
110.55778	12.07000	 1.849697e-002	3.35606
110.63284	12.08000	 1.763711e-002	3.35597
110.70787	12.09000	 1.677720e-002	3.35588
110.78298	12.10000	 1.571967e-002	3.35579
110.85811	12.11000	 1.490948e-002	3.35570
110.93322	12.12000	 1.409827e-002	3.35561
111.00833	12.13000	 1.323683e-002	3.35552
111.08344	12.14000	 1.229062e-002	3.35543
111.15851	12.15000	 1.141825e-002	3.35534
111.23360	12.16000	 1.047194e-002	3.35525
111.30871	12.17000	 9.549988e-003	3.35516
111.38387	12.18000	 8.751705e-003	3.35507
111.45893	12.19000	 8.076789e-003	3.35498
111.53400	12.20000	 7.427231e-003	3.35489
111.60905	12.21000	 6.727498e-003	3.35480
111.68413	12.22000	 5.879244e-003	3.35471
111.75924	12.23000	 5.105509e-003	3.35461
111.83431	12.24000	 4.356806e-003	3.35452
111.90931	12.25000	 3.656918e-003	3.35443
111.98438	12.26000	 2.833888e-003	3.35434
112.05947	12.27000	 2.059511e-003	3.35425
112.13451	12.28000	 1.358818e-003	3.35416
112.20951	12.29000	 7.567709e-004	3.35407
112.28447	12.30000	 1.553425e-004	3.35397
112.35944	12.31000	-5.206987e-004	3.35388
112.43440	12.32000	-1.073338e-003	3.35379
112.50944	12.33000	-1.699948e-003	3.35370
112.58449	12.34000	-2.673169e-003	3.35360
112.65955	12.35000	-3.324616e-003	3.35351
112.73458	12.36000	-4.000532e-003	3.35342
112.80967	12.37000	-4.651735e-003	3.35333
112.88476	12.38000	-5.105558e-003	3.35323
112.95982	12.39000	-5.732065e-003	3.35314
113.03484	12.40000	-6.306242e-003	3.35305
113.10980	12.41000	-6.876419e-003	3.35295
113.18475	12.42000	-7.471066e-003	3.35286
113.25976	12.43000	-8.115266e-003	3.35277
113.33478	12.44000	-8.487450e-003	3.35267
113.40976	12.45000	-9.081864e-003	3.35258
113.48478	12.46000	-9.602026e-003	3.35249
113.55980	12.47000	-1.019651e-002	3.35239
113.63480	12.48000	-1.084055e-002	3.35230
113.70982	12.49000	-1.143608e-002	3.35220
113.78475	12.50000	-1.212973e-002	3.35211
113.85964	12.51000	-1.250210e-002	3.35202
113.93458	12.52000	-1.314693e-002	3.35192
114.00953	12.53000	-1.376580e-002	3.35183
114.08447	12.54000	-1.425496e-002	3.35173
114.15940	12.55000	-1.479337e-002	3.35164
114.23436	12.56000	-1.523207e-002	3.35154
114.30933	12.57000	-1.567145e-002	3.35145
114.38433	12.58000	-1.613562e-002	3.35135
114.45931	12.59000	-1.664936e-002	3.35126
114.53427	12.60000	-1.686586e-002	3.35116
114.60925	12.61000	-1.750353e-002	3.35107
114.68422	12.62000	-1.814155e-002	3.35097
114.75925	12.63000	-1.825933e-002	3.35088
114.83427	12.64000	-1.894664e-002	3.35078
114.90927	12.65000	-1.943546e-002	3.35068
114.98424	12.66000	-1.997418e-002	3.35059
115.05920	12.67000	-2.052398e-002	3.35049
115.13418	12.68000	-2.112737e-002	3.35040
115.20920	12.69000	-2.133367e-002	3.35030
115.28420	12.70000	-2.178779e-002	3.35020
115.35913	12.71000	-2.256376e-002	3.35011
115.43405	12.72000	-2.291881e-002	3.35001
115.50900	12.73000	-2.319953e-002	3.34991
115.58391	12.74000	-2.377734e-002	3.34982
115.65887	12.75000	-2.430562e-002	3.34972
115.73387	12.76000	-2.475992e-002	3.34962
115.80887	12.77000	-2.526413e-002	3.34953
115.88391	12.78000	-2.574294e-002	3.34943
115.95896	12.79000	-2.607403e-002	3.34933
116.03396	12.80000	-2.652737e-002	3.34923
116.10895	12.81000	-2.705414e-002	3.34913
116.18404	12.82000	-2.753073e-002	3.34904
116.25909	12.83000	-2.758560e-002	3.34894
116.33409	12.84000	-2.823738e-002	3.34884
116.40911	12.85000	-2.859009e-002	3.34874
116.48416	12.86000	-2.901784e-002	3.34864
116.55927	12.87000	-2.942051e-002	3.34855
116.63433	12.88000	-2.987246e-002	3.34845
116.70931	12.89000	-3.017567e-002	3.34835
116.78431	12.90000	-3.052882e-002	3.34825
116.85929	12.91000	-3.085719e-002	3.34815
116.93429	12.92000	-3.121005e-002	3.34805
117.00935	12.93000	-3.156454e-002	3.34795
117.08438	12.94000	-3.197534e-002	3.34785
117.15940	12.95000	-3.236039e-002	3.34775
117.23442	12.96000	-3.274611e-002	3.34765
117.30938	12.97000	-3.328097e-002	3.34756
117.38440	12.98000	-3.369155e-002	3.34746
117.45945	12.99000	-3.402710e-002	3.34736
117.53462	13.00000	-3.436334e-002	3.34726
117.60978	13.01000	-3.464968e-002	3.34715
117.68493	13.02000	-3.498661e-002	3.34705
117.75998	13.03000	-3.527329e-002	3.34695
117.83509	13.04000	-3.565921e-002	3.34685
117.91016	13.05000	-3.606964e-002	3.34675
117.98516	13.06000	-3.645560e-002	3.34665
118.06020	13.07000	-3.680155e-002	3.34655
118.13529	13.08000	-3.697002e-002	3.34645
118.21031	13.09000	-3.718781e-002	3.34635
118.28533	13.10000	-3.770332e-002	3.34625
118.36042	13.11000	-3.802070e-002	3.34615
118.43553	13.12000	-3.828784e-002	3.34605
118.51053	13.13000	-3.852920e-002	3.34594
118.58551	13.14000	-3.884665e-002	3.34584
118.66045	13.15000	-3.931301e-002	3.34574
118.73549	13.16000	-3.953124e-002	3.34564
118.81051	13.17000	-3.972370e-002	3.34554
118.88547	13.18000	-4.004123e-002	3.34544
118.96045	13.19000	-4.033397e-002	3.34533
119.03542	13.20000	-4.057805e-002	3.34523
119.11042	13.21000	-4.079843e-002	3.34513
119.18542	13.22000	-4.109395e-002	3.34503
119.26045	13.23000	-4.141364e-002	3.34493
119.33549	13.24000	-4.153511e-002	3.34482
119.41049	13.25000	-4.160696e-002	3.34472
119.48549	13.26000	-4.202632e-002	3.34462
119.56038	13.27000	-4.222263e-002	3.34451
119.63529	13.28000	-4.261721e-002	3.34441
119.71020	13.29000	-4.291221e-002	3.34431
119.78511	13.30000	-4.293414e-002	3.34420
119.86000	13.31000	-4.345357e-002	3.34410
119.93493	13.32000	-4.364963e-002	3.34400
120.00987	13.33000	-4.377156e-002	3.34389
120.08480	13.34000	-4.384565e-002	3.34379
120.15967	13.35000	-4.416868e-002	3.34369
120.23460	13.36000	-4.456589e-002	3.34358
120.30951	13.37000	-4.483867e-002	3.34348
120.38442	13.38000	-4.513758e-002	3.34338
120.45933	13.39000	-4.543522e-002	3.34327
120.53425	13.40000	-4.563419e-002	3.34317
120.60927	13.41000	-4.583254e-002	3.34306
120.68429	13.42000	-4.608088e-002	3.34296
120.75924	13.43000	-4.630441e-002	3.34285
120.83420	13.44000	-4.647895e-002	3.34275
120.90920	13.45000	-4.665218e-002	3.34264
120.98422	13.46000	-4.702477e-002	3.34254
121.05918	13.47000	-4.717973e-002	3.34243
121.13407	13.48000	-4.738553e-002	3.34233
121.20902	13.49000	-4.781490e-002	3.34222
121.28396	13.50000	-4.809525e-002	3.34212
121.35893	13.51000	-4.840048e-002	3.34201
121.43396	13.52000	-4.860603e-002	3.34191
121.50898	13.53000	-4.861318e-002	3.34180
121.58400	13.54000	-4.894265e-002	3.34169
121.65896	13.55000	-4.929763e-002	3.34159
121.73391	13.56000	-4.952873e-002	3.34148
121.80893	13.57000	-4.993345e-002	3.34138
121.88398	13.58000	-5.031336e-002	3.34127
121.95898	13.59000	-5.056872e-002	3.34116
122.03400	13.60000	-5.085247e-002	3.34106
122.10904	13.61000	-5.086669e-002	3.34095
122.18409	13.62000	-5.102937e-002	3.34084
122.25909	13.63000	-5.134082e-002	3.34074
122.33409	13.64000	-5.162745e-002	3.34063
122.40913	13.65000	-5.176564e-002	3.34052
122.48415	13.66000	-5.210201e-002	3.34041
122.55918	13.67000	-5.238967e-002	3.34031
122.63416	13.68000	-5.260181e-002	3.34020
122.70915	13.69000	-5.286432e-002	3.34009
122.78407	13.70000	-5.315072e-002	3.33998
122.85902	13.71000	-5.323927e-002	3.33988
122.93396	13.72000	-5.337722e-002	3.33977
123.00895	13.73000	-5.381130e-002	3.33966
123.08395	13.74000	-5.395593e-002	3.33955
123.15900	13.75000	-5.422487e-002	3.33944
123.23405	13.76000	-5.446930e-002	3.33934
123.30907	13.77000	-5.471341e-002	3.33923
123.38407	13.78000	-5.490749e-002	3.33912
123.45907	13.79000	-5.507706e-002	3.33901
123.53400	13.80000	-5.537063e-002	3.33890
123.60902	13.81000	-5.539136e-002	3.33879
123.68398	13.82000	-5.558549e-002	3.33868
123.75904	13.83000	-5.575576e-002	3.33857
123.83404	13.84000	-5.614919e-002	3.33847
123.90904	13.85000	-5.644285e-002	3.33836
123.98405	13.86000	-5.668712e-002	3.33825
124.05907	13.87000	-5.691157e-002	3.33814
124.13409	13.88000	-5.713780e-002	3.33803
124.20913	13.89000	-5.741412e-002	3.33792
124.28413	13.90000	-5.761553e-002	3.33781
124.35920	13.91000	-5.781727e-002	3.33770
124.43425	13.92000	-5.794408e-002	3.33759
124.50927	13.93000	-5.794652e-002	3.33748
124.58427	13.94000	-5.829658e-002	3.33737
124.65924	13.95000	-5.874713e-002	3.33726
124.73424	13.96000	-5.894862e-002	3.33715
124.80925	13.97000	-5.907551e-002	3.33703
124.88431	13.98000	-5.940142e-002	3.33692
124.95938	13.99000	-5.952800e-002	3.33681
125.03447	14.00000	-5.978249e-002	3.33670
125.10945	14.01000	-6.001584e-002	3.33659
125.18444	14.02000	-6.012479e-002	3.33648
125.25942	14.03000	-6.040826e-002	3.33637
125.33444	14.04000	-6.064135e-002	3.33626
125.40951	14.05000	-6.092454e-002	3.33614
125.48455	14.06000	-6.115798e-002	3.33603
125.55958	14.07000	-6.141633e-002	3.33592
125.63456	14.08000	-6.179978e-002	3.33581
125.70956	14.09000	-6.183352e-002	3.33570
125.78464	14.10000	-6.184337e-002	3.33559
125.85965	14.11000	-6.212634e-002	3.33547
125.93469	14.12000	-6.245945e-002	3.33536
126.00967	14.13000	-6.258990e-002	3.33525
126.08469	14.14000	-6.279894e-002	3.33514
126.15964	14.15000	-6.305779e-002	3.33502
126.23460	14.16000	-6.326654e-002	3.33491
126.30955	14.17000	-6.347532e-002	3.33480
126.38455	14.18000	-6.373324e-002	3.33469
126.45958	14.19000	-6.391745e-002	3.33457
126.53453	14.20000	-6.407648e-002	3.33446
126.60949	14.21000	-6.436033e-002	3.33435
126.68453	14.22000	-6.469367e-002	3.33423
126.75951	14.23000	-6.487731e-002	3.33412
126.83447	14.24000	-6.501149e-002	3.33401
126.90947	14.25000	-6.529510e-002	3.33389
126.98444	14.26000	-6.562886e-002	3.33378
127.05936	14.27000	-6.595280e-002	3.33366
127.13429	14.28000	-6.630751e-002	3.33355
127.20927	14.29000	-6.658624e-002	3.33344
127.28429	14.30000	-6.679092e-002	3.33332
127.35929	14.31000	-6.689533e-002	3.33321
127.43425	14.32000	-6.712430e-002	3.33309
127.50922	14.33000	-6.762825e-002	3.33298
127.58424	14.34000	-6.770780e-002	3.33286
127.65929	14.35000	-6.786210e-002	3.33275
127.73433	14.36000	-6.834090e-002	3.33263
127.80938	14.37000	-6.871977e-002	3.33252
127.88436	14.38000	-6.904883e-002	3.33240
127.95935	14.39000	-6.937824e-002	3.33229
128.03435	14.40000	-6.967980e-002	3.33217
128.10931	14.41000	-6.997999e-002	3.33206
128.18436	14.42000	-7.037955e-002	3.33194
128.25940	14.43000	-7.067915e-002	3.33183
128.33446	14.44000	-7.097942e-002	3.33171
128.40949	14.45000	-7.122955e-002	3.33160
128.48451	14.46000	-7.152954e-002	3.33148
128.55947	14.47000	-7.197875e-002	3.33136
128.63445	14.48000	-7.220370e-002	3.33125
128.70944	14.49000	-7.255393e-002	3.33113
128.78440	14.50000	-7.302848e-002	3.33102
128.85945	14.51000	-7.352799e-002	3.33090
128.93449	14.52000	-7.400260e-002	3.33078
129.00949	14.53000	-7.435319e-002	3.33067
129.08449	14.54000	-7.470761e-002	3.33055
129.15949	14.55000	-7.503680e-002	3.33043
129.23449	14.56000	-7.544145e-002	3.33031
129.30944	14.57000	-7.592061e-002	3.33020
129.38440	14.58000	-7.610063e-002	3.33008
129.45938	14.59000	-7.662970e-002	3.32996
129.53431	14.60000	-7.703448e-002	3.32985
129.60929	14.61000	-7.731430e-002	3.32973
129.68424	14.62000	-7.779360e-002	3.32961
129.75916	14.63000	-7.817353e-002	3.32949
129.83407	14.64000	-7.855252e-002	3.32938
129.90900	14.65000	-7.898205e-002	3.32926
129.98391	14.66000	-7.951136e-002	3.32914
130.05884	14.67000	-8.012503e-002	3.32902
130.13384	14.68000	-8.056711e-002	3.32890
130.20884	14.69000	-8.080906e-002	3.32879
130.28382	14.70000	-8.117670e-002	3.32867
130.35880	14.71000	-8.169370e-002	3.32855
130.43375	14.72000	-8.213524e-002	3.32843
130.50871	14.73000	-8.262703e-002	3.32831
130.58367	14.74000	-8.309327e-002	3.32819
130.65867	14.75000	-8.356053e-002	3.32807
130.73367	14.76000	-8.405244e-002	3.32795
130.80873	14.77000	-8.459495e-002	3.32783
130.88375	14.78000	-8.496156e-002	3.32772
130.95876	14.79000	-8.530456e-002	3.32760
131.03378	14.80000	-8.603784e-002	3.32748
131.10876	14.81000	-8.653589e-002	3.32736
131.18382	14.82000	-8.700967e-002	3.32724
131.25886	14.83000	-8.748348e-002	3.32712
131.33387	14.84000	-8.808178e-002	3.32700
131.40889	14.85000	-8.850610e-002	3.32688
131.48389	14.86000	-8.902994e-002	3.32676
131.55891	14.87000	-8.970388e-002	3.32664
131.63398	14.88000	-9.032764e-002	3.32652
131.70904	14.89000	-9.087625e-002	3.32640
131.78404	14.90000	-9.139993e-002	3.32628
131.85911	14.91000	-9.192432e-002	3.32615
131.93411	14.92000	-9.259752e-002	3.32603
132.00911	14.93000	-9.307297e-002	3.32591
132.08415	14.94000	-9.362987e-002	3.32579
132.15918	14.95000	-9.408632e-002	3.32567
132.23416	14.96000	-9.461801e-002	3.32555
132.30915	14.97000	-9.517536e-002	3.32543
132.38413	14.98000	-9.565721e-002	3.32531
132.45918	14.99000	-9.621367e-002	3.32519
132.53425	15.00000	-9.674553e-002	3.32506
132.60936	15.01000	-9.727680e-002	3.32494
132.68442	15.02000	-9.788397e-002	3.32482
132.75944	15.03000	-9.849121e-002	3.32470
132.83444	15.04000	-9.909816e-002	3.32458
132.90940	15.05000	-9.965553e-002	3.32445
132.98435	15.06000	      -0.10019	3.32433
133.05931	15.07000	      -0.10089	3.32421
133.13435	15.08000	      -0.10166	3.32409
133.20944	15.09000	      -0.10218	3.32396
133.28447	15.10000	      -0.10270	3.32384
133.35956	15.11000	      -0.10315	3.32372
133.43462	15.12000	      -0.10372	3.32360
133.50962	15.13000	      -0.10434	3.32347
133.58460	15.14000	      -0.10498	3.32335
133.65960	15.15000	      -0.10563	3.32323
133.73462	15.16000	      -0.10640	3.32310
133.80965	15.17000	      -0.10667	3.32298
133.88473	15.18000	      -0.10722	3.32286
133.95985	15.19000	      -0.10807	3.32273
134.03505	15.20000	      -0.10884	3.32261
134.11016	15.21000	      -0.10925	3.32248
134.18531	15.22000	      -0.10967	3.32236
134.26042	15.23000	      -0.11054	3.32224
134.33553	15.24000	      -0.11120	3.32211
134.41062	15.25000	      -0.11180	3.32199
134.48565	15.26000	      -0.11247	3.32186
134.56067	15.27000	      -0.11308	3.32174
134.63574	15.28000	      -0.11373	3.32161
134.71074	15.29000	      -0.11439	3.32149
134.78576	15.30000	      -0.11489	3.32137
134.86082	15.31000	      -0.11545	3.32124
134.93587	15.32000	      -0.11602	3.32112
135.01096	15.33000	      -0.11667	3.32099
135.08602	15.34000	      -0.11734	3.32087
135.16104	15.35000	      -0.11801	3.32074
135.23600	15.36000	      -0.11868	3.32061
135.31087	15.37000	      -0.11962	3.32049
135.38582	15.38000	      -0.12019	3.32036
135.46078	15.39000	      -0.12051	3.32024
135.53578	15.40000	      -0.12111	3.32011
135.61080	15.41000	      -0.12170	3.31999
135.68576	15.42000	      -0.12235	3.31986
135.76065	15.43000	      -0.12322	3.31974
135.83556	15.44000	      -0.12389	3.31961
135.91044	15.45000	      -0.12436	3.31948
135.98531	15.46000	      -0.12493	3.31936
136.06013	15.47000	      -0.12538	3.31923
136.13495	15.48000	      -0.12591	3.31910
136.20978	15.49000	      -0.12641	3.31898
136.28462	15.50000	      -0.12700	3.31885
136.35946	15.51000	      -0.12755	3.31873
136.43427	15.52000	      -0.12778	3.31860
136.50916	15.53000	      -0.12860	3.31847
136.58409	15.54000	      -0.12940	3.31834
136.65896	15.55000	      -0.12972	3.31822
136.73384	15.56000	      -0.13024	3.31809
136.80873	15.57000	      -0.13092	3.31796
136.88367	15.58000	      -0.13149	3.31784
136.95860	15.59000	      -0.13182	3.31771
137.03356	15.60000	      -0.13216	3.31758
137.10851	15.61000	      -0.13284	3.31745
137.18347	15.62000	      -0.13348	3.31733
137.25842	15.63000	      -0.13400	3.31720
137.33342	15.64000	      -0.13458	3.31707
137.40844	15.65000	      -0.13513	3.31694
137.48344	15.66000	      -0.13560	3.31681
137.55845	15.67000	      -0.13599	3.31668
137.63349	15.68000	      -0.13644	3.31656
137.70855	15.69000	      -0.13679	3.31643
137.78362	15.70000	      -0.13749	3.31630
137.85869	15.71000	      -0.13803	3.31617
137.93376	15.72000	      -0.13841	3.31604
138.00885	15.73000	      -0.13838	3.31591
138.08393	15.74000	      -0.13904	3.31578
138.15900	15.75000	      -0.13950	3.31565
138.23415	15.76000	      -0.13996	3.31552
138.30924	15.77000	      -0.14050	3.31539
138.38440	15.78000	      -0.14091	3.31526
138.45953	15.79000	      -0.14120	3.31513
138.53460	15.80000	      -0.14136	3.31500
138.60967	15.81000	      -0.14165	3.31487
138.68474	15.82000	      -0.14193	3.31474
138.75978	15.83000	      -0.14235	3.31461
138.83491	15.84000	      -0.14273	3.31448
138.90993	15.85000	      -0.14287	3.31435
138.98498	15.86000	      -0.14333	3.31422
139.05998	15.87000	      -0.14354	3.31409
139.13500	15.88000	      -0.14369	3.31396
139.21000	15.89000	      -0.14402	3.31383
139.28504	15.90000	      -0.14420	3.31370
139.36016	15.91000	      -0.14422	3.31357
139.43524	15.92000	      -0.14460	3.31344
139.51029	15.93000	      -0.14481	3.31331
139.58531	15.94000	      -0.14489	3.31318
139.66029	15.95000	      -0.14499	3.31304
139.73529	15.96000	      -0.14529	3.31291
139.81033	15.97000	      -0.14535	3.31278
139.88535	15.98000	      -0.14550	3.31265
139.96036	15.99000	      -0.14550	3.31252
140.03533	16.00000	      -0.14561	3.31239
140.11033	16.01000	      -0.14561	3.31225
140.18533	16.02000	      -0.14557	3.31212
140.26027	16.03000	      -0.14560	3.31199
140.33522	16.04000	      -0.14563	3.31186
140.41015	16.05000	      -0.14576	3.31173
140.48511	16.06000	      -0.14589	3.31159
140.56002	16.07000	      -0.14587	3.31146
140.63495	16.08000	      -0.14577	3.31133
140.70989	16.09000	      -0.14580	3.31120
140.78482	16.10000	      -0.14601	3.31106
140.85971	16.11000	      -0.14604	3.31093
140.93464	16.12000	      -0.14592	3.31080
141.00956	16.13000	      -0.14585	3.31067
141.08455	16.14000	      -0.14578	3.31053
141.15951	16.15000	      -0.14574	3.31040
141.23446	16.16000	      -0.14572	3.31027
141.30936	16.17000	      -0.14563	3.31013
141.38431	16.18000	      -0.14561	3.31000
141.45918	16.19000	      -0.14546	3.30987
141.53407	16.20000	      -0.14540	3.30973
141.60898	16.21000	      -0.14525	3.30960
141.68400	16.22000	      -0.14521	3.30947
141.75893	16.23000	      -0.14512	3.30933
141.83386	16.24000	      -0.14502	3.30920
141.90875	16.25000	      -0.14493	3.30906
141.98362	16.26000	      -0.14474	3.30893
142.05853	16.27000	      -0.14464	3.30879
142.13346	16.28000	      -0.14458	3.30866
142.20836	16.29000	      -0.14449	3.30853
142.28324	16.30000	      -0.14422	3.30839
142.35826	16.31000	      -0.14411	3.30826
142.43324	16.32000	      -0.14409	3.30812
142.50826	16.33000	      -0.14397	3.30799
142.58326	16.34000	      -0.14391	3.30785
142.65833	16.35000	      -0.14382	3.30772
142.73336	16.36000	      -0.14365	3.30758
142.80836	16.37000	      -0.14353	3.30745
142.88340	16.38000	      -0.14342	3.30731
142.95846	16.39000	      -0.14333	3.30717
143.03349	16.40000	      -0.14331	3.30704
143.10853	16.41000	      -0.14306	3.30690
143.18358	16.42000	      -0.14278	3.30677
143.25856	16.43000	      -0.14256	3.30663
143.33358	16.44000	      -0.14228	3.30650
143.40866	16.45000	      -0.14221	3.30636
143.48371	16.46000	      -0.14216	3.30622
143.55882	16.47000	      -0.14196	3.30609
143.63393	16.48000	      -0.14173	3.30595
143.70900	16.49000	      -0.14160	3.30581
143.78413	16.50000	      -0.14155	3.30568
143.85924	16.51000	      -0.14143	3.30554
143.93438	16.52000	      -0.14125	3.30540
144.00956	16.53000	      -0.14118	3.30526
144.08475	16.54000	      -0.14101	3.30513
144.15985	16.55000	      -0.14081	3.30499
144.23495	16.56000	      -0.14059	3.30485
144.31007	16.57000	      -0.14054	3.30472
144.38518	16.58000	      -0.14037	3.30458
144.46024	16.59000	      -0.14019	3.30444
144.53529	16.60000	      -0.14010	3.30430
144.61035	16.61000	      -0.13982	3.30416
144.68536	16.62000	      -0.13960	3.30403
144.76035	16.63000	      -0.13940	3.30389
144.83536	16.64000	      -0.13913	3.30375
144.91045	16.65000	      -0.13893	3.30361
144.98549	16.66000	      -0.13868	3.30347
145.06055	16.67000	      -0.13849	3.30334
145.13556	16.68000	      -0.13836	3.30320
145.21053	16.69000	      -0.13819	3.30306
145.28545	16.70000	      -0.13801	3.30292
145.36044	16.71000	      -0.13781	3.30278
145.43533	16.72000	      -0.13756	3.30264
145.51020	16.73000	      -0.13728	3.30251
145.58507	16.74000	      -0.13701	3.30237
145.65991	16.75000	      -0.13676	3.30223
145.73478	16.76000	      -0.13668	3.30209
145.80962	16.77000	      -0.13661	3.30195
145.88447	16.78000	      -0.13646	3.30181
145.95935	16.79000	      -0.13621	3.30167
146.03425	16.80000	      -0.13588	3.30153
146.10920	16.81000	      -0.13568	3.30139
146.18405	16.82000	      -0.13544	3.30125
146.25898	16.83000	      -0.13531	3.30111
146.33393	16.84000	      -0.13517	3.30097
146.40887	16.85000	      -0.13489	3.30083
146.48389	16.86000	      -0.13480	3.30069
146.55887	16.87000	      -0.13442	3.30055
146.63387	16.88000	      -0.13437	3.30041
146.70887	16.89000	      -0.13420	3.30027
146.78391	16.90000	      -0.13400	3.30013
146.85894	16.91000	      -0.13365	3.29999
146.93391	16.92000	      -0.13353	3.29985
147.00882	16.93000	      -0.13343	3.29971
147.08380	16.94000	      -0.13347	3.29957
147.15880	16.95000	      -0.13337	3.29943
147.23384	16.96000	      -0.13328	3.29929
147.30891	16.97000	      -0.13313	3.29915
147.38404	16.98000	      -0.13309	3.29901
147.45911	16.99000	      -0.13287	3.29886
147.53425	17.00000	      -0.13270	3.29872
147.60942	17.01000	      -0.13253	3.29858
147.68449	17.02000	      -0.13249	3.29844
147.75958	17.03000	      -0.13237	3.29830
147.83465	17.04000	      -0.13212	3.29815
147.90973	17.05000	      -0.13195	3.29801
147.98485	17.06000	      -0.13178	3.29787
148.05987	17.07000	      -0.13168	3.29773
148.13491	17.08000	      -0.13149	3.29759
148.21000	17.09000	      -0.13129	3.29744
148.28507	17.10000	      -0.13116	3.29730
148.36009	17.11000	      -0.13089	3.29716
148.43511	17.12000	      -0.13069	3.29702
148.51011	17.13000	      -0.13054	3.29687
148.58502	17.14000	      -0.13047	3.29673
148.65995	17.15000	      -0.13035	3.29659
148.73484	17.16000	      -0.13015	3.29645
148.80973	17.17000	      -0.12995	3.29630
148.88465	17.18000	      -0.12965	3.29616
148.95960	17.19000	      -0.12932	3.29602
149.03467	17.20000	      -0.12907	3.29587
149.10964	17.21000	      -0.12901	3.29573
149.18458	17.22000	      -0.12889	3.29559
149.25951	17.23000	      -0.12859	3.29544
149.33434	17.24000	      -0.12840	3.29530
149.40929	17.25000	      -0.12828	3.29516
149.48422	17.26000	      -0.12818	3.29501
149.55904	17.27000	      -0.12796	3.29487
149.63374	17.28000	      -0.12757	3.29473
149.70853	17.29000	      -0.12732	3.29458
149.78327	17.30000	      -0.12733	3.29444
149.85829	17.31000	      -0.12723	3.29429
149.93300	17.32000	      -0.12696	3.29415

